# Tempo(s) E[N]
10.0 6.099822
20.0 6.909902
30.0 6.718448
40.0 7.524386
50.0 8.020323
60.0 9.398582
70.0 10.339208
80.0 10.624231
90.0 10.921292
100.0 11.670088
110.0 12.370875
120.0 13.316517
130.0 14.041457
140.0 14.582507
150.0 15.293244
160.0 16.161533
170.0 16.961755
180.0 17.647816
190.0 18.393021
200.0 19.371950
210.0 20.426885
220.0 21.400539
230.0 22.431268
240.0 23.308493
250.0 24.032934
260.0 24.609634
270.0 25.115564
280.0 25.595208
290.0 26.001648
300.0 26.448781
310.0 26.853452
320.0 27.189697
330.0 27.466918
340.0 27.727770
350.0 28.028658
360.0 28.321848
370.0 28.645720
380.0 28.825107
390.0 29.068687
400.0 29.303869
410.0 29.591327
420.0 29.931654
430.0 30.241248
440.0 30.391299
450.0 30.548279
460.0 30.684299
470.0 30.839832
480.0 30.973043
490.0 31.233264
500.0 31.589295
510.0 31.825176
520.0 31.956275
530.0 32.046123
540.0 32.080031
550.0 32.005338
560.0 31.942498
570.0 31.903543
580.0 31.865503
590.0 31.774104
600.0 31.763362
610.0 31.802643
620.0 31.835513
630.0 31.866788
640.0 31.814183
650.0 31.763925
660.0 31.715795
670.0 31.637879
680.0 31.603388
690.0 31.508730
700.0 31.445807
710.0 31.376014
720.0 31.222336
730.0 31.089801
740.0 30.955837
750.0 30.816573
760.0 30.599857
770.0 30.373500
780.0 30.167317
790.0 29.983203
800.0 29.830786
810.0 29.718938
820.0 29.701290
830.0 29.672412
840.0 29.632038
850.0 29.555829
860.0 29.428694
870.0 29.217876
880.0 28.964343
890.0 28.686203
900.0 28.419565
910.0 28.199738
920.0 28.034802
930.0 27.900084
940.0 27.749460
950.0 27.518525
960.0 27.340563
970.0 27.166657
980.0 27.029518
990.0 26.897044
1000.0 26.775463
1010.0 26.686477
1020.0 26.684727
1030.0 26.645253
1040.0 26.595267
1050.0 26.534308
1060.0 26.450838
1070.0 26.303326
1080.0 26.148766
1090.0 26.014769
1100.0 25.883185
1110.0 25.744081
1120.0 25.636124
1130.0 25.518761
1140.0 25.449189
1150.0 25.415367
1160.0 25.373099
1170.0 25.288713
1180.0 25.209893
1190.0 25.180502
1200.0 25.141023
1210.0 25.054854
1220.0 24.884324
1230.0 24.695858
1240.0 24.501034
1250.0 24.316953
1260.0 24.142772
1270.0 23.965787
1280.0 23.799610
1290.0 23.686648
1300.0 23.581360
1310.0 23.475377
1320.0 23.381914
1330.0 23.292292
1340.0 23.264771
1350.0 23.241762
1360.0 23.256742
1370.0 23.249057
1380.0 23.232783
1390.0 23.222398
1400.0 23.199476
1410.0 23.184713
1420.0 23.172845
1430.0 23.162545
1440.0 23.187224
1450.0 23.178032
1460.0 23.119454
1470.0 23.080239
1480.0 23.039483
1490.0 22.965150
1500.0 22.847754
1510.0 22.704649
1520.0 22.568476
1530.0 22.432321
1540.0 22.296281
1550.0 22.157745
1560.0 22.063397
1570.0 21.984945
1580.0 21.901267
1590.0 21.818254
1600.0 21.750463
1610.0 21.676090
1620.0 21.616454
1630.0 21.557748
1640.0 21.480406
1650.0 21.372554
1660.0 21.274596
1670.0 21.207465
1680.0 21.134669
1690.0 21.056175
1700.0 20.993077
1710.0 20.905630
1720.0 20.808052
1730.0 20.694320
1740.0 20.582597
1750.0 20.474672
1760.0 20.364700
1770.0 20.252038
1780.0 20.143869
1790.0 20.050899
1800.0 19.976966
1810.0 19.891625
1820.0 19.789678
1830.0 19.685913
1840.0 19.591127
1850.0 19.494527
1860.0 19.400155
1870.0 19.316567
1880.0 19.259064
1890.0 19.189184
1900.0 19.109143
1910.0 19.011532
1920.0 18.928086
1930.0 18.834807
1940.0 18.741122
1950.0 18.672932
1960.0 18.600959
1970.0 18.526077
1980.0 18.454140
1990.0 18.392814
2000.0 18.337104
2010.0 18.295789
2020.0 18.257982
2030.0 18.204236
2040.0 18.124082
2050.0 18.044663
2060.0 17.976879
2070.0 17.892420
2080.0 17.818481
2090.0 17.777585
2100.0 17.774942
2110.0 17.815453
2120.0 17.862263
2130.0 17.931907
2140.0 18.018345
2150.0 18.101726
2160.0 18.182626
2170.0 18.239645
2180.0 18.298848
2190.0 18.401076
2200.0 18.496646
2210.0 18.573128
2220.0 18.647668
2230.0 18.719444
2240.0 18.807683
2250.0 18.908225
2260.0 19.008417
2270.0 19.129598
2280.0 19.230508
2290.0 19.313399
2300.0 19.416686
2310.0 19.521022
2320.0 19.636027
2330.0 19.720902
2340.0 19.806959
2350.0 19.890594
2360.0 19.972737
2370.0 20.044725
2380.0 20.102532
2390.0 20.140085
2400.0 20.167305
2410.0 20.225579
2420.0 20.256507
2430.0 20.249862
2440.0 20.239869
2450.0 20.252965
2460.0 20.289085
2470.0 20.333097
2480.0 20.377097
2490.0 20.430614
2500.0 20.459482
2510.0 20.473290
2520.0 20.515750
2530.0 20.553285
2540.0 20.570249
2550.0 20.590804
2560.0 20.613533
2570.0 20.635330
2580.0 20.656922
2590.0 20.675088
2600.0 20.699218
2610.0 20.726227
2620.0 20.763001
2630.0 20.810807
2640.0 20.874676
2650.0 20.926098
2660.0 20.992783
2670.0 21.060152
2680.0 21.126544
2690.0 21.183943
2700.0 21.228614
2710.0 21.304819
2720.0 21.404577
2730.0 21.493041
2740.0 21.575904
2750.0 21.669877
2760.0 21.762744
2770.0 21.858681
2780.0 21.939979
2790.0 22.024245
2800.0 22.100622
2810.0 22.192449
2820.0 22.303566
2830.0 22.404693
2840.0 22.508313
2850.0 22.609844
2860.0 22.698403
2870.0 22.786766
2880.0 22.851725
2890.0 22.899998
2900.0 22.958713
2910.0 23.009113
2920.0 23.071416
2930.0 23.110772
2940.0 23.154311
2950.0 23.200675
2960.0 23.252003
2970.0 23.324008
2980.0 23.420346
2990.0 23.518159
3000.0 23.593507
3010.0 23.666771
3020.0 23.716978
3030.0 23.762859
3040.0 23.807740
3050.0 23.853663
3060.0 23.920403
3070.0 23.989307
3080.0 24.050539
3090.0 24.120848
3100.0 24.182729
3110.0 24.245761
3120.0 24.300518
3130.0 24.368212
3140.0 24.433600
3150.0 24.529839
3160.0 24.647478
3170.0 24.788730
3180.0 24.922377
3190.0 25.041240
3200.0 25.149621
3210.0 25.271906
3220.0 25.374546
3230.0 25.477243
3240.0 25.589007
3250.0 25.714629
3260.0 25.840042
3270.0 25.977445
3280.0 26.110783
3290.0 26.247015
3300.0 26.400003
3310.0 26.554327
3320.0 26.723555
3330.0 26.896993
3340.0 27.080075
3350.0 27.253901
3360.0 27.438368
3370.0 27.612709
3380.0 27.782213
3390.0 27.936856
3400.0 28.091885
3410.0 28.246893
3420.0 28.397412
3430.0 28.553055
3440.0 28.703801
3450.0 28.853032
3460.0 28.995257
3470.0 29.146766
3480.0 29.313854
3490.0 29.496025
3500.0 29.693161
3510.0 29.916788
3520.0 30.150426
3530.0 30.396861
3540.0 30.644332
3550.0 30.900001
3560.0 31.162904
3570.0 31.429475
3580.0 31.683554
3590.0 31.924559
3600.0 32.165063
3610.0 32.416255
3620.0 32.665218
3630.0 32.906721
3640.0 33.156337
3650.0 33.410201
3660.0 33.655747
3670.0 33.911910
3680.0 34.169323
3690.0 34.428195
3700.0 34.698127
3710.0 34.981075
3720.0 35.280553
3730.0 35.584225
3740.0 35.886526
3750.0 36.182841
3760.0 36.494277
3770.0 36.821806
3780.0 37.155161
3790.0 37.496558
3800.0 37.831973
3810.0 38.165541
3820.0 38.491621
3830.0 38.809953
3840.0 39.127948
3850.0 39.456965
3860.0 39.788216
3870.0 40.122841
3880.0 40.461744
3890.0 40.800067
3900.0 41.139881
3910.0 41.460793
3920.0 41.775650
3930.0 42.096934
3940.0 42.413147
3950.0 42.720701
3960.0 43.025065
3970.0 43.317033
3980.0 43.595936
3990.0 43.864525
4000.0 44.136288
4010.0 44.408621
4020.0 44.667251
4030.0 44.921543
4040.0 45.153656
4050.0 45.371572
4060.0 45.602758
4070.0 45.839080
4080.0 46.082142
4090.0 46.334184
4100.0 46.563313
4110.0 46.796970
4120.0 47.024562
4130.0 47.249016
4140.0 47.467810
4150.0 47.683772
4160.0 47.884256
4170.0 48.098091
4180.0 48.309840
4190.0 48.514524
4200.0 48.713043
4210.0 48.900551
4220.0 49.091444
4230.0 49.294057
4240.0 49.481491
4250.0 49.666665
4260.0 49.856770
4270.0 50.045850
4280.0 50.226653
4290.0 50.393054
4300.0 50.567401
4310.0 50.734300
4320.0 50.900042
4330.0 51.066680
4340.0 51.228956
4350.0 51.395628
4360.0 51.542571
4370.0 51.678379
4380.0 51.816052
4390.0 51.952225
4400.0 52.080756
4410.0 52.211488
4420.0 52.340687
4430.0 52.477708
4440.0 52.606455
4450.0 52.729614
4460.0 52.854963
4470.0 52.979712
4480.0 53.098482
4490.0 53.216653
4500.0 53.323611
4510.0 53.429043
4520.0 53.537568
4530.0 53.657447
4540.0 53.777619
4550.0 53.886354
4560.0 53.996197
4570.0 54.103756
4580.0 54.211507
4590.0 54.319566
4600.0 54.417254
4610.0 54.523104
4620.0 54.623469
4630.0 54.717714
4640.0 54.834387
4650.0 54.967166
4660.0 55.116254
4670.0 55.267603
4680.0 55.423999
4690.0 55.588012
4700.0 55.749505
4710.0 55.909004
4720.0 56.069462
4730.0 56.241987
4740.0 56.413056
4750.0 56.571176
4760.0 56.715041
4770.0 56.843827
4780.0 56.966680
4790.0 57.104576
4800.0 57.251100
4810.0 57.413188
4820.0 57.574315
4830.0 57.739188
4840.0 57.910795
4850.0 58.073744
4860.0 58.240475
4870.0 58.398986
4880.0 58.560827
4890.0 58.724788
4900.0 58.884752
4910.0 59.046695
4920.0 59.226647
4930.0 59.410847
4940.0 59.589111
4950.0 59.769986
4960.0 59.943643
4970.0 60.113187
4980.0 60.283169
4990.0 60.440619
5000.0 60.597913
5010.0 60.758130
5020.0 60.920983
5030.0 61.093435
5040.0 61.261018
5050.0 61.437825
5060.0 61.619404
5070.0 61.811630
5080.0 62.006269
5090.0 62.192596
5100.0 62.371875
5110.0 62.558300
5120.0 62.752163
5130.0 62.955986
5140.0 63.168832
5150.0 63.389280
5160.0 63.599882
5170.0 63.806258
5180.0 64.020612
5190.0 64.225761
5200.0 64.420986
5210.0 64.607949
5220.0 64.796800
5230.0 64.981421
5240.0 65.166336
5250.0 65.356129
5260.0 65.557584
5270.0 65.753942
5280.0 65.958481
5290.0 66.167722
5300.0 66.376396
5310.0 66.594743
5320.0 66.806349
5330.0 67.011596
5340.0 67.221270
5350.0 67.439654
5360.0 67.662942
5370.0 67.888755
5380.0 68.115904
5390.0 68.344813
5400.0 68.575323
5410.0 68.818701
5420.0 69.077701
5430.0 69.335225
5440.0 69.586079
5450.0 69.826261
5460.0 70.064560
5470.0 70.298081
5480.0 70.525178
5490.0 70.755721
5500.0 70.984680
5510.0 71.206756
5520.0 71.423223
5530.0 71.641969
5540.0 71.854938
5550.0 72.067034
5560.0 72.267891
5570.0 72.460429
5580.0 72.644426
5590.0 72.818896
5600.0 72.986417
5610.0 73.143413
5620.0 73.303128
5630.0 73.468636
5640.0 73.627663
5650.0 73.780430
5660.0 73.933408
5670.0 74.101481
5680.0 74.276562
5690.0 74.461583
5700.0 74.648680
5710.0 74.827655
5720.0 74.999600
5730.0 75.168255
5740.0 75.327728
5750.0 75.473629
5760.0 75.616767
5770.0 75.750442
5780.0 75.884198
5790.0 76.021870
5800.0 76.156109
5810.0 76.283594
5820.0 76.417392
5830.0 76.557801
5840.0 76.697825
5850.0 76.841347
5860.0 76.989576
5870.0 77.137954
5880.0 77.283441
5890.0 77.431009
5900.0 77.574612
5910.0 77.709708
5920.0 77.840687
5930.0 77.962957
5940.0 78.094176
5950.0 78.240357
5960.0 78.386801
5970.0 78.525974
5980.0 78.660476
5990.0 78.794912
6000.0 78.922939
6010.0 79.055379
6020.0 79.192887
6030.0 79.323019
6040.0 79.453097
6050.0 79.585567
6060.0 79.716923
6070.0 79.853576
6080.0 79.991242
6090.0 80.126398
6100.0 80.254974
6110.0 80.383856
6120.0 80.531226
6130.0 80.688953
6140.0 80.849776
6150.0 81.004312
6160.0 81.158019
6170.0 81.317800
6180.0 81.478722
6190.0 81.638022
6200.0 81.792925
6210.0 81.945036
6220.0 82.100503
6230.0 82.258977
6240.0 82.413684
6250.0 82.566480
6260.0 82.719216
6270.0 82.879432
6280.0 83.035896
6290.0 83.194545
6300.0 83.359144
6310.0 83.528277
6320.0 83.698301
6330.0 83.859510
6340.0 84.026481
6350.0 84.193988
6360.0 84.363185
6370.0 84.536832
6380.0 84.710976
6390.0 84.893964
6400.0 85.083695
6410.0 85.268978
6420.0 85.456393
6430.0 85.642310
6440.0 85.833596
6450.0 86.026728
6460.0 86.216119
6470.0 86.395367
6480.0 86.575515
6490.0 86.758255
6500.0 86.940573
6510.0 87.116094
6520.0 87.288755
6530.0 87.464293
6540.0 87.639127
6550.0 87.806862
6560.0 87.975318
6570.0 88.139345
6580.0 88.294790
6590.0 88.448927
6600.0 88.605525
6610.0 88.763714
6620.0 88.923697
6630.0 89.082537
6640.0 89.235039
6650.0 89.379254
6660.0 89.519849
6670.0 89.662777
6680.0 89.801517
6690.0 89.940040
6700.0 90.069183
6710.0 90.186118
6720.0 90.301056
6730.0 90.414003
6740.0 90.524732
6750.0 90.624181
6760.0 90.721191
6770.0 90.822373
6780.0 90.921234
6790.0 91.016673
6800.0 91.105771
6810.0 91.191894
6820.0 91.288414
6830.0 91.390851
6840.0 91.496705
6850.0 91.606688
6860.0 91.709090
6870.0 91.809948
6880.0 91.909224
6890.0 92.005366
6900.0 92.101457
6910.0 92.183974
6920.0 92.256155
6930.0 92.331411
6940.0 92.411779
6950.0 92.486954
6960.0 92.552135
6970.0 92.609379
6980.0 92.666389
6990.0 92.724644
7000.0 92.783610
7010.0 92.841895
7020.0 92.904977
7030.0 92.962394
7040.0 93.025191
7050.0 93.094290
7060.0 93.164536
7070.0 93.232243
7080.0 93.297471
7090.0 93.355072
7100.0 93.406013
7110.0 93.457933
7120.0 93.514510
7130.0 93.570018
7140.0 93.624063
7150.0 93.679769
7160.0 93.732185
7170.0 93.777581
7180.0 93.817563
7190.0 93.852318
7200.0 93.883510
7210.0 93.916266
7220.0 93.945969
7230.0 93.978121
7240.0 94.008309
7250.0 94.046066
7260.0 94.084653
7270.0 94.118319
7280.0 94.158547
7290.0 94.201496
7300.0 94.242224
7310.0 94.284133
7320.0 94.321515
7330.0 94.354859
7340.0 94.387448
7350.0 94.417744
7360.0 94.447004
7370.0 94.475442
7380.0 94.500631
7390.0 94.524818
7400.0 94.546180
7410.0 94.572352
7420.0 94.608497
7430.0 94.640832
7440.0 94.676471
7450.0 94.719585
7460.0 94.765926
7470.0 94.813946
7480.0 94.858898
7490.0 94.910619
7500.0 94.964305
7510.0 95.009477
7520.0 95.050954
7530.0 95.094297
7540.0 95.141384
7550.0 95.181418
7560.0 95.211372
7570.0 95.244695
7580.0 95.279990
7590.0 95.315370
7600.0 95.352515
7610.0 95.390549
7620.0 95.430139
7630.0 95.469692
7640.0 95.504275
7650.0 95.536779
7660.0 95.570931
7670.0 95.612202
7680.0 95.655500
7690.0 95.700451
7700.0 95.746958
7710.0 95.792859
7720.0 95.834116
7730.0 95.877148
7740.0 95.921992
7750.0 95.964543
7760.0 96.006750
7770.0 96.045497
7780.0 96.080935
7790.0 96.125197
7800.0 96.175381
7810.0 96.222937
7820.0 96.269912
7830.0 96.319556
7840.0 96.370329
7850.0 96.419316
7860.0 96.467928
7870.0 96.509992
7880.0 96.553174
7890.0 96.599985
7900.0 96.648086
7910.0 96.693696
7920.0 96.734782
7930.0 96.768701
7940.0 96.794437
7950.0 96.813555
7960.0 96.830536
7970.0 96.849668
7980.0 96.867737
7990.0 96.884223
8000.0 96.901043
8010.0 96.920949
8020.0 96.944019
8030.0 96.958315
8040.0 96.964063
8050.0 96.962087
8060.0 96.954840
8070.0 96.957631
8080.0 96.963011
8090.0 96.964701
8100.0 96.966678
8110.0 96.973023
8120.0 96.980900
8130.0 96.988211
8140.0 96.988295
8150.0 96.998638
8160.0 97.011013
8170.0 97.021337
8180.0 97.031291
8190.0 97.037708
8200.0 97.033586
8210.0 97.030770
8220.0 97.025638
8230.0 97.023594
8240.0 97.022820
8250.0 97.024320
8260.0 97.019293
8270.0 97.008214
8280.0 96.989963
8290.0 96.977403
8300.0 96.975091
8310.0 96.975480
8320.0 96.977771
8330.0 96.982564
8340.0 96.991792
8350.0 97.002955
8360.0 97.018309
8370.0 97.029068
8380.0 97.040897
8390.0 97.047404
8400.0 97.056395
8410.0 97.058935
8420.0 97.056082
8430.0 97.048614
8440.0 97.034993
8450.0 97.012199
8460.0 96.985685
8470.0 96.967759
8480.0 96.941074
8490.0 96.906781
8500.0 96.871547
8510.0 96.837186
8520.0 96.806749
8530.0 96.774460
8540.0 96.741595
8550.0 96.715773
8560.0 96.687781
8570.0 96.657328
8580.0 96.617233
8590.0 96.576278
8600.0 96.530160
8610.0 96.479089
8620.0 96.422894
8630.0 96.364212
8640.0 96.306684
8650.0 96.252356
8660.0 96.191636
8670.0 96.126870
8680.0 96.060910
8690.0 95.991431
8700.0 95.916813
8710.0 95.837108
8720.0 95.758011
8730.0 95.679621
8740.0 95.607377
8750.0 95.534934
8760.0 95.453295
8770.0 95.367165
8780.0 95.286238
8790.0 95.205311
8800.0 95.118681
8810.0 95.033890
8820.0 94.956743
8830.0 94.878957
8840.0 94.798676
8850.0 94.713568
8860.0 94.621830
8870.0 94.527833
8880.0 94.441056
8890.0 94.359563
8900.0 94.283293
8910.0 94.205091
8920.0 94.124193
8930.0 94.038734
8940.0 93.952640
8950.0 93.869907
8960.0 93.783267
8970.0 93.693031
8980.0 93.600420
8990.0 93.508998
9000.0 93.419072
9010.0 93.333049
9020.0 93.244851
9030.0 93.154121
9040.0 93.060757
9050.0 92.968242
9060.0 92.877249
9070.0 92.793401
9080.0 92.710795
9090.0 92.628943
9100.0 92.543976
9110.0 92.460878
9120.0 92.379537
9130.0 92.296074
9140.0 92.210361
9150.0 92.130439
9160.0 92.051878
9170.0 91.979811
9180.0 91.910573
9190.0 91.836965
9200.0 91.760236
9210.0 91.680069
9220.0 91.593927
9230.0 91.509148
9240.0 91.427496
9250.0 91.345947
9260.0 91.264455
9270.0 91.187895
9280.0 91.113652
9290.0 91.040775
9300.0 90.970124
9310.0 90.894892
9320.0 90.820274
9330.0 90.744722
9340.0 90.673077
9350.0 90.595369
9360.0 90.518984
9370.0 90.439618
9380.0 90.355178
9390.0 90.267695
9400.0 90.179820
9410.0 90.094756
9420.0 90.010734
9430.0 89.928608
9440.0 89.844123
9450.0 89.760876
9460.0 89.680389
9470.0 89.601806
9480.0 89.524945
9490.0 89.445148
9500.0 89.362899
9510.0 89.280641
9520.0 89.202464
9530.0 89.131738
9540.0 89.068591
9550.0 89.009525
9560.0 88.942055
9570.0 88.873537
9580.0 88.806873
9590.0 88.739791
9600.0 88.676649
9610.0 88.615219
9620.0 88.549298
9630.0 88.487356
9640.0 88.423938
9650.0 88.360044
9660.0 88.293832
9670.0 88.226219
9680.0 88.164112
9690.0 88.097957
9700.0 88.034757
9710.0 87.975812
9720.0 87.911042
9730.0 87.849700
9740.0 87.790669
9750.0 87.732745
9760.0 87.676221
9770.0 87.615084
9780.0 87.550816
9790.0 87.490209
9800.0 87.432450
9810.0 87.379923
9820.0 87.325656
9830.0 87.274630
9840.0 87.224810
9850.0 87.170665
9860.0 87.111242
9870.0 87.051463
9880.0 86.993689
9890.0 86.934981
9900.0 86.878340
9910.0 86.825018
9920.0 86.770758
9930.0 86.716797
9940.0 86.657664
9950.0 86.595202
9960.0 86.535031
9970.0 86.479666
9980.0 86.428080
9990.0 86.379147
10000.0 86.334917
10010.0 86.295509
10020.0 86.258701
10030.0 86.225729
10040.0 86.195168
10050.0 86.172079
10060.0 86.150250
10070.0 86.124723
10080.0 86.095875
10090.0 86.068780
10100.0 86.040695
10110.0 86.009391
10120.0 85.978380
10130.0 85.949787
10140.0 85.918461
10150.0 85.887593
10160.0 85.857981
10170.0 85.832008
10180.0 85.811194
10190.0 85.789493
10200.0 85.768926
10210.0 85.748486
10220.0 85.733288
10230.0 85.713921
10240.0 85.692655
10250.0 85.674425
10260.0 85.659148
10270.0 85.641666
10280.0 85.621884
10290.0 85.600589
10300.0 85.575785
10310.0 85.552812
10320.0 85.525724
10330.0 85.496003
10340.0 85.464225
10350.0 85.438548
10360.0 85.411241
10370.0 85.383897
10380.0 85.352825
10390.0 85.321311
10400.0 85.290990
10410.0 85.262067
10420.0 85.239757
10430.0 85.223066
10440.0 85.205741
10450.0 85.186614
10460.0 85.164505
10470.0 85.142831
10480.0 85.120410
10490.0 85.091883
10500.0 85.065772
10510.0 85.038299
10520.0 85.006006
10530.0 84.970238
10540.0 84.933025
10550.0 84.894359
10560.0 84.854608
10570.0 84.811964
10580.0 84.765267
10590.0 84.714826
10600.0 84.662190
10610.0 84.609211
10620.0 84.556008
10630.0 84.500785
10640.0 84.441432
10650.0 84.380367
10660.0 84.321255
10670.0 84.263389
10680.0 84.211329
10690.0 84.162102
10700.0 84.109404
10710.0 84.053343
10720.0 83.996777
10730.0 83.942938
10740.0 83.891898
10750.0 83.846501
10760.0 83.799331
10770.0 83.753128
10780.0 83.710508
10790.0 83.667045
10800.0 83.621887
10810.0 83.577139
10820.0 83.532449
10830.0 83.492404
10840.0 83.453677
10850.0 83.413338
10860.0 83.372544
10870.0 83.329014
10880.0 83.289020
10890.0 83.256824
10900.0 83.232244
10910.0 83.209104
10920.0 83.187909
10930.0 83.165830
10940.0 83.138994
10950.0 83.105790
10960.0 83.067155
10970.0 83.018320
10980.0 82.960847
10990.0 82.900438
11000.0 82.840884
11010.0 82.782131
11020.0 82.724005
11030.0 82.660306
11040.0 82.599765
11050.0 82.542546
11060.0 82.487388
11070.0 82.435315
11080.0 82.381055
11090.0 82.325339
11100.0 82.269113
11110.0 82.217852
11120.0 82.165595
11130.0 82.117935
11140.0 82.066076
11150.0 82.013676
11160.0 81.967497
11170.0 81.923766
11180.0 81.879948
11190.0 81.837534
11200.0 81.794848
11210.0 81.749636
11220.0 81.704292
11230.0 81.665174
11240.0 81.632515
11250.0 81.603470
11260.0 81.583752
11270.0 81.566673
11280.0 81.557054
11290.0 81.551426
11300.0 81.544303
11310.0 81.539873
11320.0 81.540157
11330.0 81.546572
11340.0 81.559468
11350.0 81.570583
11360.0 81.571887
11370.0 81.568650
11380.0 81.564470
11390.0 81.557641
11400.0 81.550299
11410.0 81.546492
11420.0 81.545191
11430.0 81.540724
11440.0 81.534526
11450.0 81.525779
11460.0 81.513498
11470.0 81.501798
11480.0 81.491107
11490.0 81.478703
11500.0 81.462793
11510.0 81.447559
11520.0 81.434155
11530.0 81.426976
11540.0 81.416374
11550.0 81.403334
11560.0 81.390630
11570.0 81.380609
11580.0 81.369715
11590.0 81.359641
11600.0 81.353243
11610.0 81.343845
11620.0 81.333676
11630.0 81.323869
11640.0 81.313075
11650.0 81.304855
11660.0 81.296290
11670.0 81.287531
11680.0 81.278359
11690.0 81.270683
11700.0 81.264710
11710.0 81.257017
11720.0 81.248139
11730.0 81.234895
11740.0 81.223614
11750.0 81.215146
11760.0 81.210621
11770.0 81.206282
11780.0 81.202422
11790.0 81.194075
11800.0 81.186576
11810.0 81.181391
11820.0 81.173248
11830.0 81.166264
11840.0 81.157915
11850.0 81.148878
11860.0 81.138386
11870.0 81.128913
11880.0 81.114511
11890.0 81.096608
11900.0 81.075336
11910.0 81.052014
11920.0 81.026706
11930.0 81.000575
11940.0 80.976508
11950.0 80.949858
11960.0 80.925989
11970.0 80.901700
11980.0 80.876952
11990.0 80.849582
12000.0 80.822465
12010.0 80.792061
12020.0 80.759625
12030.0 80.729705
12040.0 80.698609
12050.0 80.664037
12060.0 80.625767
12070.0 80.592622
12080.0 80.558389
12090.0 80.521811
12100.0 80.484522
12110.0 80.441917
12120.0 80.405173
12130.0 80.370583
12140.0 80.337147
12150.0 80.303599
12160.0 80.272537
12170.0 80.237887
12180.0 80.201433
12190.0 80.169749
12200.0 80.139427
12210.0 80.105741
12220.0 80.073107
12230.0 80.041628
12240.0 80.011799
12250.0 79.980167
12260.0 79.947212
12270.0 79.913911
12280.0 79.882087
12290.0 79.851307
12300.0 79.821319
12310.0 79.793322
12320.0 79.761525
12330.0 79.729504
12340.0 79.697638
12350.0 79.664514
12360.0 79.630909
12370.0 79.599968
12380.0 79.568459
12390.0 79.540018
12400.0 79.513513
12410.0 79.488007
12420.0 79.463461
12430.0 79.440097
12440.0 79.413701
12450.0 79.387238
12460.0 79.357628
12470.0 79.327621
12480.0 79.293858
12490.0 79.258236
12500.0 79.219630
12510.0 79.183347
12520.0 79.145616
12530.0 79.105039
12540.0 79.063556
12550.0 79.022782
12560.0 78.982339
12570.0 78.940815
12580.0 78.903023
12590.0 78.860841
12600.0 78.814051
12610.0 78.767887
12620.0 78.726574
12630.0 78.682462
12640.0 78.642941
12650.0 78.605332
12660.0 78.566190
12670.0 78.524863
12680.0 78.476737
12690.0 78.430187
12700.0 78.388683
12710.0 78.349999
12720.0 78.313419
12730.0 78.279342
12740.0 78.247015
12750.0 78.212037
12760.0 78.176625
12770.0 78.139802
12780.0 78.097494
12790.0 78.052128
12800.0 78.004109
12810.0 77.956796
12820.0 77.911194
12830.0 77.866422
12840.0 77.819628
12850.0 77.778115
12860.0 77.738690
12870.0 77.698038
12880.0 77.661114
12890.0 77.626158
12900.0 77.589917
12910.0 77.550503
12920.0 77.511475
12930.0 77.473882
12940.0 77.435778
12950.0 77.396706
12960.0 77.358480
12970.0 77.322148
12980.0 77.286358
12990.0 77.250270
13000.0 77.209211
13010.0 77.163463
13020.0 77.115268
13030.0 77.069559
13040.0 77.026812
13050.0 76.984458
13060.0 76.946633
13070.0 76.910866
13080.0 76.875820
13090.0 76.840611
13100.0 76.804849
13110.0 76.765594
13120.0 76.724438
13130.0 76.682398
13140.0 76.642055
13150.0 76.600352
13160.0 76.560765
13170.0 76.520109
13180.0 76.480011
13190.0 76.441315
13200.0 76.402298
13210.0 76.363904
13220.0 76.324911
13230.0 76.285062
13240.0 76.242275
13250.0 76.201595
13260.0 76.163676
13270.0 76.128893
13280.0 76.094265
13290.0 76.060096
13300.0 76.026402
13310.0 75.990817
13320.0 75.953702
13330.0 75.914816
13340.0 75.875267
13350.0 75.837099
13360.0 75.797866
13370.0 75.761576
13380.0 75.722981
13390.0 75.682798
13400.0 75.639404
13410.0 75.599133
13420.0 75.560043
13430.0 75.524364
13440.0 75.488542
13450.0 75.455518
13460.0 75.425107
13470.0 75.395424
13480.0 75.367354
13490.0 75.339100
13500.0 75.306357
13510.0 75.274395
13520.0 75.244014
13530.0 75.213857
13540.0 75.183716
13550.0 75.158940
13560.0 75.135099
13570.0 75.114499
13580.0 75.095366
13590.0 75.077842
13600.0 75.058743
13610.0 75.037253
13620.0 75.012191
13630.0 74.982236
13640.0 74.953548
13650.0 74.927814
13660.0 74.898780
13670.0 74.866962
13680.0 74.833155
13690.0 74.795721
13700.0 74.754648
13710.0 74.709986
13720.0 74.664668
13730.0 74.619428
13740.0 74.576755
13750.0 74.535626
13760.0 74.492053
13770.0 74.446629
13780.0 74.403731
13790.0 74.359433
13800.0 74.314799
13810.0 74.268763
13820.0 74.222496
13830.0 74.177688
13840.0 74.129835
13850.0 74.080838
13860.0 74.031704
13870.0 73.984997
13880.0 73.940044
13890.0 73.900861
13900.0 73.864128
13910.0 73.826760
13920.0 73.785505
13930.0 73.741070
13940.0 73.698541
13950.0 73.653776
13960.0 73.609695
13970.0 73.565452
13980.0 73.522028
13990.0 73.474934
14000.0 73.428324
14010.0 73.377277
14020.0 73.331703
14030.0 73.289003
14040.0 73.249585
14050.0 73.210182
14060.0 73.169854
14070.0 73.129080
14080.0 73.087450
14090.0 73.049092
14100.0 73.012570
14110.0 72.977694
14120.0 72.941314
14130.0 72.903676
14140.0 72.867374
14150.0 72.830104
14160.0 72.792500
14170.0 72.753299
14180.0 72.711768
14190.0 72.671018
14200.0 72.627488
14210.0 72.578655
14220.0 72.528788
14230.0 72.478962
14240.0 72.429870
14250.0 72.381317
14260.0 72.336685
14270.0 72.294867
14280.0 72.252156
14290.0 72.207121
14300.0 72.164881
14310.0 72.120927
14320.0 72.076864
14330.0 72.036388
14340.0 71.994534
14350.0 71.954774
14360.0 71.912791
14370.0 71.868157
14380.0 71.822020
14390.0 71.776074
14400.0 71.732825
14410.0 71.689468
14420.0 71.644522
14430.0 71.599962
14440.0 71.554031
14450.0 71.509295
14460.0 71.465953
14470.0 71.422810
14480.0 71.376602
14490.0 71.329500
14500.0 71.283603
14510.0 71.238696
14520.0 71.195401
14530.0 71.148003
14540.0 71.101190
14550.0 71.057266
14560.0 71.017726
14570.0 70.976784
14580.0 70.934217
14590.0 70.895819
14600.0 70.856440
14610.0 70.816989
14620.0 70.778252
14630.0 70.741159
14640.0 70.705076
14650.0 70.667837
14660.0 70.632497
14670.0 70.593418
14680.0 70.551328
14690.0 70.507296
14700.0 70.461972
14710.0 70.416440
14720.0 70.373801
14730.0 70.333122
14740.0 70.290135
14750.0 70.246841
14760.0 70.203069
14770.0 70.160015
14780.0 70.118499
14790.0 70.077680
14800.0 70.035749
14810.0 69.993329
14820.0 69.948954
14830.0 69.905845
14840.0 69.862846
14850.0 69.819658
14860.0 69.776289
14870.0 69.735954
14880.0 69.695245
14890.0 69.657761
14900.0 69.618399
14910.0 69.579071
14920.0 69.538002
14930.0 69.499711
14940.0 69.464332
14950.0 69.427294
14960.0 69.392210
14970.0 69.357891
14980.0 69.323119
14990.0 69.286827
15000.0 69.250048
15010.0 69.218515
15020.0 69.189152
15030.0 69.160405
15040.0 69.129567
15050.0 69.099278
15060.0 69.069397
15070.0 69.035196
15080.0 68.999202
15090.0 68.968742
15100.0 68.938624
15110.0 68.906246
15120.0 68.873011
15130.0 68.836647
15140.0 68.799997
15150.0 68.763391
15160.0 68.728043
15170.0 68.690318
15180.0 68.649491
15190.0 68.604957
15200.0 68.561002
15210.0 68.517961
15220.0 68.474906
15230.0 68.430654
15240.0 68.386160
15250.0 68.346285
15260.0 68.309282
15270.0 68.273148
15280.0 68.238230
15290.0 68.202471
15300.0 68.167910
15310.0 68.129933
15320.0 68.093191
15330.0 68.057297
15340.0 68.023907
15350.0 67.991256
15360.0 67.959581
15370.0 67.925919
15380.0 67.894793
15390.0 67.864507
15400.0 67.830922
15410.0 67.798123
15420.0 67.768867
15430.0 67.744578
15440.0 67.719916
15450.0 67.694722
15460.0 67.671006
15470.0 67.646780
15480.0 67.625578
15490.0 67.607265
15500.0 67.589854
15510.0 67.570763
15520.0 67.551932
15530.0 67.532879
15540.0 67.515720
15550.0 67.497654
15560.0 67.477539
15570.0 67.459140
15580.0 67.438537
15590.0 67.419362
15600.0 67.403812
15610.0 67.388648
15620.0 67.371831
15630.0 67.354363
15640.0 67.340285
15650.0 67.329297
15660.0 67.314965
15670.0 67.300971
15680.0 67.284838
15690.0 67.274139
15700.0 67.267126
15710.0 67.257044
15720.0 67.244966
15730.0 67.234113
15740.0 67.223032
15750.0 67.209585
15760.0 67.196676
15770.0 67.187334
15780.0 67.179537
15790.0 67.170235
15800.0 67.161715
15810.0 67.152042
15820.0 67.148668
15830.0 67.147728
15840.0 67.151623
15850.0 67.155042
15860.0 67.161713
15870.0 67.170380
15880.0 67.178111
15890.0 67.183960
15900.0 67.188416
15910.0 67.191923
15920.0 67.193752
15930.0 67.193280
15940.0 67.190649
15950.0 67.188487
15960.0 67.182543
15970.0 67.178655
15980.0 67.177359
15990.0 67.175122
16000.0 67.169664
16010.0 67.162325
16020.0 67.154574
16030.0 67.145839
16040.0 67.137811
16050.0 67.125891
16060.0 67.115058
16070.0 67.106250
16080.0 67.098978
16090.0 67.095550
16100.0 67.091205
16110.0 67.086060
16120.0 67.077580
16130.0 67.070736
16140.0 67.064826
16150.0 67.057228
16160.0 67.050158
16170.0 67.044213
16180.0 67.039286
16190.0 67.033752
16200.0 67.024209
16210.0 67.012197
16220.0 67.001197
16230.0 66.992508
16240.0 66.983928
16250.0 66.973690
16260.0 66.965593
16270.0 66.959864
16280.0 66.955808
16290.0 66.951443
16300.0 66.948198
16310.0 66.947472
16320.0 66.949132
16330.0 66.951511
16340.0 66.953265
16350.0 66.954018
16360.0 66.956191
16370.0 66.957371
16380.0 66.953918
16390.0 66.949262
16400.0 66.940464
16410.0 66.928753
16420.0 66.921801
16430.0 66.914780
16440.0 66.903738
16450.0 66.895773
16460.0 66.888381
16470.0 66.879292
16480.0 66.873646
16490.0 66.867184
16500.0 66.861533
16510.0 66.854867
16520.0 66.847868
16530.0 66.841545
16540.0 66.839626
16550.0 66.838166
16560.0 66.835861
16570.0 66.832637
16580.0 66.827867
16590.0 66.824977
16600.0 66.822841
16610.0 66.816522
16620.0 66.810320
16630.0 66.802269
16640.0 66.795225
16650.0 66.788748
16660.0 66.781345
16670.0 66.773864
16680.0 66.768765
16690.0 66.765191
16700.0 66.761299
16710.0 66.755397
16720.0 66.751996
16730.0 66.747932
16740.0 66.742158
16750.0 66.737295
16760.0 66.731709
16770.0 66.724078
16780.0 66.715601
16790.0 66.710168
16800.0 66.710931
16810.0 66.712011
16820.0 66.709512
16830.0 66.706825
16840.0 66.703665
16850.0 66.699927
16860.0 66.695707
16870.0 66.691531
16880.0 66.687372
16890.0 66.681761
16900.0 66.675465
16910.0 66.668392
16920.0 66.660629
16930.0 66.655160
16940.0 66.651648
16950.0 66.646103
16960.0 66.644575
16970.0 66.641624
16980.0 66.635504
16990.0 66.627285
17000.0 66.622096
17010.0 66.618867
17020.0 66.614092
17030.0 66.610447
17040.0 66.603382
17050.0 66.594320
17060.0 66.583192
17070.0 66.570188
17080.0 66.550150
17090.0 66.528558
17100.0 66.505609
17110.0 66.484080
17120.0 66.462926
17130.0 66.439496
17140.0 66.413721
17150.0 66.391149
17160.0 66.371298
17170.0 66.350889
17180.0 66.331366
17190.0 66.313540
17200.0 66.295698
17210.0 66.274431
17220.0 66.254223
17230.0 66.233315
17240.0 66.211361
17250.0 66.186755
17260.0 66.158846
17270.0 66.135559
17280.0 66.116799
17290.0 66.099069
17300.0 66.080761
17310.0 66.062986
17320.0 66.046356
17330.0 66.030121
17340.0 66.013675
17350.0 65.998591
17360.0 65.983189
17370.0 65.967934
17380.0 65.955900
17390.0 65.943930
17400.0 65.932840
17410.0 65.918463
17420.0 65.902742
17430.0 65.885860
17440.0 65.867233
17450.0 65.846146
17460.0 65.825125
17470.0 65.802390
17480.0 65.780446
17490.0 65.756275
17500.0 65.733521
17510.0 65.709710
17520.0 65.684296
17530.0 65.659085
17540.0 65.634382
17550.0 65.608969
17560.0 65.582064
17570.0 65.554979
17580.0 65.530026
17590.0 65.504347
17600.0 65.481645
17610.0 65.458358
17620.0 65.431528
17630.0 65.403031
17640.0 65.377387
17650.0 65.350841
17660.0 65.325835
17670.0 65.299906
17680.0 65.273919
17690.0 65.250194
17700.0 65.225505
17710.0 65.202608
17720.0 65.182544
17730.0 65.162387
17740.0 65.143459
17750.0 65.125997
17760.0 65.104468
17770.0 65.085209
17780.0 65.066551
17790.0 65.048875
17800.0 65.032462
17810.0 65.016136
17820.0 64.999914
17830.0 64.979356
17840.0 64.957821
17850.0 64.937218
17860.0 64.919347
17870.0 64.903384
17880.0 64.888477
17890.0 64.874281
17900.0 64.860111
17910.0 64.842963
17920.0 64.828692
17930.0 64.815467
17940.0 64.804151
17950.0 64.794591
17960.0 64.782489
17970.0 64.771811
17980.0 64.761012
17990.0 64.751629
18000.0 64.741496
18010.0 64.731349
18020.0 64.722035
18030.0 64.715092
18040.0 64.711091
18050.0 64.707782
18060.0 64.708337
18070.0 64.709893
18080.0 64.711820
18090.0 64.711690
18100.0 64.709631
18110.0 64.708322
18120.0 64.705315
18130.0 64.703993
18140.0 64.702900
18150.0 64.701915
18160.0 64.700822
18170.0 64.699650
18180.0 64.698375
18190.0 64.696603
18200.0 64.694338
18210.0 64.691595
18220.0 64.688717
18230.0 64.684865
18240.0 64.681432
18250.0 64.675938
18260.0 64.672989
18270.0 64.671628
18280.0 64.667694
18290.0 64.661925
18300.0 64.657300
18310.0 64.656304
18320.0 64.659901
18330.0 64.664644
18340.0 64.668119
18350.0 64.672843
18360.0 64.678286
18370.0 64.682803
18380.0 64.687163
18390.0 64.692638
18400.0 64.699379
18410.0 64.706749
18420.0 64.712012
18430.0 64.717876
18440.0 64.719835
18450.0 64.721311
18460.0 64.722587
18470.0 64.723265
18480.0 64.723592
18490.0 64.725114
18500.0 64.729713
18510.0 64.735638
18520.0 64.744475
18530.0 64.756926
18540.0 64.768162
18550.0 64.778777
18560.0 64.790212
18570.0 64.801420
18580.0 64.814786
18590.0 64.830392
18600.0 64.844118
18610.0 64.857405
18620.0 64.873209
18630.0 64.890485
18640.0 64.905156
18650.0 64.923028
18660.0 64.943346
18670.0 64.959204
18680.0 64.971838
18690.0 64.982758
18700.0 64.994275
18710.0 65.007685
18720.0 65.021234
18730.0 65.034470
18740.0 65.048712
18750.0 65.063450
18760.0 65.078196
18770.0 65.093555
18780.0 65.108761
18790.0 65.122935
18800.0 65.135077
18810.0 65.145156
18820.0 65.153833
18830.0 65.163372
18840.0 65.175558
18850.0 65.187024
18860.0 65.198013
18870.0 65.207173
18880.0 65.215758
18890.0 65.226249
18900.0 65.237991
18910.0 65.249962
18920.0 65.263842
18930.0 65.280653
18940.0 65.297165
18950.0 65.314055
18960.0 65.328269
18970.0 65.340997
18980.0 65.357312
18990.0 65.375682
19000.0 65.391607
19010.0 65.405930
19020.0 65.418530
19030.0 65.433366
19040.0 65.444871
19050.0 65.455626
19060.0 65.460606
19070.0 65.464215
19080.0 65.466098
19090.0 65.467253
19100.0 65.465549
19110.0 65.465834
19120.0 65.465153
19130.0 65.463519
19140.0 65.460615
19150.0 65.458618
19160.0 65.454551
19170.0 65.450728
19180.0 65.445444
19190.0 65.440959
19200.0 65.434639
19210.0 65.430995
19220.0 65.426693
19230.0 65.422087
19240.0 65.418983
19250.0 65.417153
19260.0 65.415246
19270.0 65.413628
19280.0 65.411865
19290.0 65.409996
19300.0 65.408813
19310.0 65.408574
19320.0 65.407320
19330.0 65.406522
19340.0 65.402173
19350.0 65.394053
19360.0 65.384414
19370.0 65.372779
19380.0 65.357656
19390.0 65.343901
19400.0 65.334745
19410.0 65.325050
19420.0 65.314338
19430.0 65.301467
19440.0 65.287898
19450.0 65.275454
19460.0 65.263772
19470.0 65.254623
19480.0 65.244940
19490.0 65.237397
19500.0 65.231510
19510.0 65.225499
19520.0 65.219846
19530.0 65.217387
19540.0 65.218650
19550.0 65.221932
19560.0 65.225865
19570.0 65.229514
19580.0 65.234564
19590.0 65.239747
19600.0 65.246509
19610.0 65.253105
19620.0 65.258342
19630.0 65.262355
19640.0 65.264436
19650.0 65.266979
19660.0 65.272424
19670.0 65.280836
19680.0 65.293095
19690.0 65.308793
19700.0 65.322409
19710.0 65.332998
19720.0 65.344884
19730.0 65.357519
19740.0 65.367891
19750.0 65.378386
19760.0 65.385574
19770.0 65.392480
19780.0 65.400521
19790.0 65.410740
19800.0 65.419951
19810.0 65.428399
19820.0 65.434707
19830.0 65.439524
19840.0 65.444112
19850.0 65.450115
19860.0 65.456761
19870.0 65.463220
19880.0 65.467204
19890.0 65.469657
19900.0 65.472284
19910.0 65.473035
19920.0 65.474867
19930.0 65.476113
19940.0 65.477422
19950.0 65.476796
19960.0 65.477868
19970.0 65.481988
19980.0 65.484030
19990.0 65.486645
20000.0 65.488044
20010.0 65.490010
20020.0 65.492064
20030.0 65.490895
20040.0 65.491670
20050.0 65.492346
20060.0 65.492390
20070.0 65.492714
20080.0 65.493119
20090.0 65.490876
20100.0 65.489147
20110.0 65.487990
20120.0 65.488309
20130.0 65.489104
20140.0 65.488772
20150.0 65.488216
20160.0 65.488353
20170.0 65.486790
20180.0 65.485247
20190.0 65.481613
20200.0 65.477306
20210.0 65.473339
20220.0 65.471930
20230.0 65.470129
20240.0 65.467200
20250.0 65.464706
20260.0 65.465461
20270.0 65.465329
20280.0 65.466045
20290.0 65.465622
20300.0 65.465032
20310.0 65.464317
20320.0 65.465310
20330.0 65.464576
20340.0 65.461753
20350.0 65.460301
20360.0 65.460787
20370.0 65.461963
20380.0 65.462987
20390.0 65.463763
20400.0 65.462058
20410.0 65.458988
20420.0 65.454565
20430.0 65.451507
20440.0 65.448457
20450.0 65.446673
20460.0 65.447475
20470.0 65.450322
20480.0 65.454061
20490.0 65.458033
20500.0 65.464912
20510.0 65.475280
20520.0 65.487162
20530.0 65.500204
20540.0 65.512800
20550.0 65.525664
20560.0 65.535291
20570.0 65.543557
20580.0 65.553427
20590.0 65.561369
20600.0 65.566753
20610.0 65.568958
20620.0 65.571816
20630.0 65.572445
20640.0 65.572959
20650.0 65.571043
20660.0 65.565559
20670.0 65.559480
20680.0 65.552931
20690.0 65.546506
20700.0 65.540830
20710.0 65.532247
20720.0 65.523089
20730.0 65.510750
20740.0 65.496436
20750.0 65.480525
20760.0 65.464525
20770.0 65.449936
20780.0 65.433650
20790.0 65.416001
20800.0 65.395911
20810.0 65.376720
20820.0 65.355809
20830.0 65.333060
20840.0 65.306162
20850.0 65.278393
20860.0 65.248542
20870.0 65.220305
20880.0 65.191799
20890.0 65.161553
20900.0 65.132280
20910.0 65.102325
20920.0 65.075587
20930.0 65.050961
20940.0 65.028246
20950.0 65.005630
20960.0 64.987292
20970.0 64.968699
20980.0 64.947268
20990.0 64.924207
21000.0 64.902549
21010.0 64.884364
21020.0 64.866319
21030.0 64.847851
21040.0 64.829001
21050.0 64.806871
21060.0 64.782951
21070.0 64.756842
21080.0 64.730364
21090.0 64.706432
21100.0 64.682393
21110.0 64.661801
21120.0 64.644882
21130.0 64.630244
21140.0 64.617374
21150.0 64.603088
21160.0 64.587184
21170.0 64.571991
21180.0 64.555423
21190.0 64.540182
21200.0 64.525289
21210.0 64.511664
21220.0 64.498082
21230.0 64.485290
21240.0 64.475124
21250.0 64.464713
21260.0 64.453494
21270.0 64.442321
21280.0 64.431629
21290.0 64.421672
21300.0 64.413787
21310.0 64.410517
21320.0 64.410343
21330.0 64.410386
21340.0 64.410012
21350.0 64.410762
21360.0 64.411762
21370.0 64.412352
21380.0 64.410368
21390.0 64.408344
21400.0 64.406864
21410.0 64.403219
21420.0 64.399312
21430.0 64.394835
21440.0 64.388919
21450.0 64.380758
21460.0 64.369986
21470.0 64.358891
21480.0 64.344790
21490.0 64.330290
21500.0 64.317805
21510.0 64.302585
21520.0 64.288387
21530.0 64.270312
21540.0 64.251422
21550.0 64.234573
21560.0 64.218474
21570.0 64.204326
21580.0 64.192795
21590.0 64.179649
21600.0 64.167970
21610.0 64.157866
21620.0 64.147524
21630.0 64.138357
21640.0 64.125586
21650.0 64.109897
21660.0 64.095832
21670.0 64.087235
21680.0 64.080120
21690.0 64.072495
21700.0 64.064062
21710.0 64.054930
21720.0 64.045332
21730.0 64.034725
21740.0 64.026507
21750.0 64.015255
21760.0 64.003737
21770.0 63.992496
21780.0 63.983274
21790.0 63.973213
21800.0 63.960569
21810.0 63.948126
21820.0 63.935324
21830.0 63.923478
21840.0 63.911286
21850.0 63.897485
21860.0 63.881392
21870.0 63.863111
21880.0 63.843866
21890.0 63.823568
21900.0 63.800347
21910.0 63.774052
21920.0 63.745887
21930.0 63.717477
21940.0 63.691012
21950.0 63.666287
21960.0 63.641662
21970.0 63.616148
21980.0 63.588996
21990.0 63.560316
22000.0 63.532076
22010.0 63.503655
22020.0 63.475624
22030.0 63.451238
22040.0 63.429150
22050.0 63.406388
22060.0 63.384853
22070.0 63.366048
22080.0 63.346930
22090.0 63.326627
22100.0 63.307965
22110.0 63.289489
22120.0 63.272086
22130.0 63.253456
22140.0 63.234693
22150.0 63.217685
22160.0 63.201280
22170.0 63.183762
22180.0 63.161548
22190.0 63.142260
22200.0 63.128663
22210.0 63.116673
22220.0 63.105783
22230.0 63.097568
22240.0 63.087180
22250.0 63.077117
22260.0 63.069523
22270.0 63.062342
22280.0 63.055295
22290.0 63.047535
22300.0 63.039761
22310.0 63.031139
22320.0 63.023636
22330.0 63.016767
22340.0 63.007298
22350.0 62.996910
22360.0 62.986115
22370.0 62.977956
22380.0 62.968304
22390.0 62.958341
22400.0 62.949294
22410.0 62.938518
22420.0 62.930358
22430.0 62.921398
22440.0 62.913524
22450.0 62.904830
22460.0 62.896918
22470.0 62.891414
22480.0 62.884757
22490.0 62.879597
22500.0 62.874605
22510.0 62.871691
22520.0 62.869602
22530.0 62.866221
22540.0 62.863236
22550.0 62.859928
22560.0 62.856485
22570.0 62.855109
22580.0 62.853217
22590.0 62.852501
22600.0 62.853201
22610.0 62.852454
22620.0 62.849044
22630.0 62.845676
22640.0 62.843480
22650.0 62.840472
22660.0 62.835606
22670.0 62.829031
22680.0 62.822425
22690.0 62.819073
22700.0 62.819436
22710.0 62.821295
22720.0 62.823168
22730.0 62.824576
22740.0 62.825822
22750.0 62.829770
22760.0 62.836233
22770.0 62.845472
22780.0 62.859027
22790.0 62.875171
22800.0 62.892123
22810.0 62.908513
22820.0 62.923929
22830.0 62.938204
22840.0 62.951123
22850.0 62.963755
22860.0 62.977605
22870.0 62.992229
22880.0 63.005433
22890.0 63.017372
22900.0 63.028679
22910.0 63.039442
22920.0 63.050855
22930.0 63.061371
22940.0 63.070858
22950.0 63.079294
22960.0 63.090235
22970.0 63.101134
22980.0 63.111157
22990.0 63.123945
23000.0 63.138244
23010.0 63.152599
23020.0 63.166575
23030.0 63.176799
23040.0 63.188506
23050.0 63.200649
23060.0 63.213238
23070.0 63.226079
23080.0 63.238673
23090.0 63.251605
23100.0 63.265323
23110.0 63.277974
23120.0 63.289081
23130.0 63.302745
23140.0 63.318296
23150.0 63.336135
23160.0 63.354136
23170.0 63.373008
23180.0 63.392492
23190.0 63.414682
23200.0 63.438255
23210.0 63.460540
23220.0 63.480479
23230.0 63.499089
23240.0 63.516093
23250.0 63.534105
23260.0 63.551548
23270.0 63.570639
23280.0 63.589334
23290.0 63.606889
23300.0 63.623740
23310.0 63.641115
23320.0 63.655840
23330.0 63.671594
23340.0 63.688256
23350.0 63.704458
23360.0 63.722376
23370.0 63.740503
23380.0 63.757059
23390.0 63.772543
23400.0 63.787397
23410.0 63.801739
23420.0 63.815643
23430.0 63.830493
23440.0 63.843890
23450.0 63.855661
23460.0 63.867441
23470.0 63.879672
23480.0 63.891562
23490.0 63.905727
23500.0 63.919433
23510.0 63.931119
23520.0 63.942943
23530.0 63.956741
23540.0 63.972826
23550.0 63.988368
23560.0 64.001299
23570.0 64.013310
23580.0 64.023649
23590.0 64.032964
23600.0 64.043919
23610.0 64.054547
23620.0 64.062664
23630.0 64.068955
23640.0 64.074930
23650.0 64.079756
23660.0 64.083586
23670.0 64.086906
23680.0 64.094250
23690.0 64.104615
23700.0 64.116225
23710.0 64.127583
23720.0 64.138993
23730.0 64.148842
23740.0 64.157116
23750.0 64.162689
23760.0 64.167941
23770.0 64.172412
23780.0 64.176313
23790.0 64.179742
23800.0 64.181839
23810.0 64.184464
23820.0 64.188398
23830.0 64.192793
23840.0 64.199094
23850.0 64.205906
23860.0 64.213712
23870.0 64.221794
23880.0 64.230889
23890.0 64.240212
23900.0 64.248698
23910.0 64.256372
23920.0 64.265247
23930.0 64.273756
23940.0 64.282660
23950.0 64.290833
23960.0 64.297680
23970.0 64.303873
23980.0 64.309736
23990.0 64.314406
24000.0 64.317050
24010.0 64.319983
24020.0 64.320927
24030.0 64.319785
24040.0 64.316648
24050.0 64.313153
24060.0 64.307746
24070.0 64.304786
24080.0 64.305287
24090.0 64.307582
24100.0 64.310122
24110.0 64.313606
24120.0 64.318119
24130.0 64.323917
24140.0 64.328925
24150.0 64.333595
24160.0 64.339509
24170.0 64.345428
24180.0 64.351764
24190.0 64.357405
24200.0 64.361482
24210.0 64.365528
24220.0 64.369271
24230.0 64.374848
24240.0 64.380414
24250.0 64.385882
24260.0 64.391273
24270.0 64.395978
24280.0 64.401521
24290.0 64.407784
24300.0 64.412020
24310.0 64.414915
24320.0 64.416178
24330.0 64.415734
24340.0 64.416475
24350.0 64.417881
24360.0 64.418340
24370.0 64.419345
24380.0 64.417505
24390.0 64.416025
24400.0 64.414846
24410.0 64.412975
24420.0 64.412587
24430.0 64.412973
24440.0 64.415439
24450.0 64.419754
24460.0 64.423517
24470.0 64.429795
24480.0 64.434553
24490.0 64.439709
24500.0 64.444143
24510.0 64.447046
24520.0 64.450260
24530.0 64.451777
24540.0 64.452854
24550.0 64.454722
24560.0 64.457818
24570.0 64.461762
24580.0 64.468488
24590.0 64.474013
24600.0 64.478755
24610.0 64.482017
24620.0 64.484266
24630.0 64.485711
24640.0 64.486030
24650.0 64.487078
24660.0 64.488364
24670.0 64.490603
24680.0 64.495749
24690.0 64.502244
24700.0 64.510203
24710.0 64.518213
24720.0 64.527800
24730.0 64.541487
24740.0 64.555726
24750.0 64.569982
24760.0 64.583613
24770.0 64.595684
24780.0 64.609149
24790.0 64.622223
24800.0 64.636339
24810.0 64.653524
24820.0 64.670915
24830.0 64.684698
24840.0 64.699794
24850.0 64.714623
24860.0 64.727731
24870.0 64.741915
24880.0 64.757707
24890.0 64.771236
24900.0 64.783242
24910.0 64.795279
24920.0 64.808833
24930.0 64.821629
24940.0 64.834817
24950.0 64.849249
24960.0 64.865708
24970.0 64.881525
24980.0 64.898403
24990.0 64.914179
25000.0 64.927462
25010.0 64.939305
25020.0 64.950694
25030.0 64.963245
25040.0 64.975738
25050.0 64.987813
25060.0 65.001042
25070.0 65.012460
25080.0 65.023480
25090.0 65.035530
25100.0 65.047398
25110.0 65.059675
25120.0 65.070978
25130.0 65.086413
25140.0 65.102839
25150.0 65.121357
25160.0 65.143821
25170.0 65.167453
25180.0 65.189755
25190.0 65.211506
25200.0 65.231732
25210.0 65.250294
25220.0 65.268900
25230.0 65.287756
25240.0 65.306900
25250.0 65.327889
25260.0 65.348278
25270.0 65.367896
25280.0 65.388276
25290.0 65.407210
25300.0 65.427717
25310.0 65.447757
25320.0 65.468058
25330.0 65.488500
25340.0 65.506757
25350.0 65.522792
25360.0 65.538480
25370.0 65.556600
25380.0 65.574304
25390.0 65.591984
25400.0 65.609825
25410.0 65.629045
25420.0 65.648934
25430.0 65.668502
25440.0 65.687956
25450.0 65.706958
25460.0 65.725600
25470.0 65.744433
25480.0 65.762955
25490.0 65.783089
25500.0 65.803557
25510.0 65.824953
25520.0 65.846189
25530.0 65.865712
25540.0 65.883883
25550.0 65.900097
25560.0 65.919227
25570.0 65.937634
25580.0 65.954547
25590.0 65.971036
25600.0 65.986003
25610.0 65.999178
25620.0 66.011203
25630.0 66.022642
25640.0 66.033308
25650.0 66.044686
25660.0 66.056958
25670.0 66.068128
25680.0 66.077749
25690.0 66.085732
25700.0 66.093817
25710.0 66.100501
25720.0 66.106544
25730.0 66.113879
25740.0 66.121138
25750.0 66.127558
25760.0 66.135544
25770.0 66.142211
25780.0 66.148680
25790.0 66.156710
25800.0 66.165062
25810.0 66.172784
25820.0 66.178297
25830.0 66.183185
25840.0 66.189820
25850.0 66.195483
25860.0 66.198879
25870.0 66.201809
25880.0 66.203518
25890.0 66.205905
25900.0 66.206469
25910.0 66.206394
25920.0 66.206533
25930.0 66.206355
25940.0 66.205786
25950.0 66.205532
25960.0 66.205696
25970.0 66.208010
25980.0 66.212852
25990.0 66.218358
26000.0 66.222675
26010.0 66.225233
26020.0 66.227498
26030.0 66.227555
26040.0 66.228288
26050.0 66.229183
26060.0 66.231901
26070.0 66.232426
26080.0 66.232124
26090.0 66.230510
26100.0 66.227916
26110.0 66.225887
26120.0 66.222029
26130.0 66.214687
26140.0 66.207020
26150.0 66.200081
26160.0 66.191588
26170.0 66.181930
26180.0 66.170052
26190.0 66.158279
26200.0 66.145112
26210.0 66.128751
26220.0 66.112527
26230.0 66.096027
26240.0 66.080159
26250.0 66.063814
26260.0 66.048790
26270.0 66.034639
26280.0 66.020593
26290.0 66.004152
26300.0 65.987738
26310.0 65.968090
26320.0 65.948156
26330.0 65.927540
26340.0 65.907903
26350.0 65.888256
26360.0 65.868974
26370.0 65.849740
26380.0 65.831537
26390.0 65.815705
26400.0 65.801462
26410.0 65.787758
26420.0 65.771656
26430.0 65.758905
26440.0 65.747512
26450.0 65.736373
26460.0 65.722107
26470.0 65.707456
26480.0 65.693591
26490.0 65.679860
26500.0 65.664701
26510.0 65.647853
26520.0 65.630573
26530.0 65.612405
26540.0 65.592194
26550.0 65.571247
26560.0 65.553502
26570.0 65.534722
26580.0 65.515770
26590.0 65.497155
26600.0 65.478974
26610.0 65.460360
26620.0 65.441154
26630.0 65.421924
26640.0 65.399648
26650.0 65.378768
26660.0 65.357224
26670.0 65.336312
26680.0 65.315706
26690.0 65.295166
26700.0 65.275524
26710.0 65.257589
26720.0 65.239567
26730.0 65.220831
26740.0 65.202815
26750.0 65.186002
26760.0 65.170036
26770.0 65.153615
26780.0 65.137028
26790.0 65.120052
26800.0 65.105305
26810.0 65.090626
26820.0 65.076921
26830.0 65.062410
26840.0 65.046913
26850.0 65.030993
26860.0 65.014209
26870.0 64.995895
26880.0 64.977208
26890.0 64.960916
26900.0 64.945144
26910.0 64.929489
26920.0 64.915745
26930.0 64.901450
26940.0 64.885978
26950.0 64.872508
26960.0 64.860229
26970.0 64.847162
26980.0 64.835084
26990.0 64.824265
27000.0 64.817306
27010.0 64.810922
27020.0 64.803639
27030.0 64.793606
27040.0 64.780889
27050.0 64.769849
27060.0 64.759158
27070.0 64.748949
27080.0 64.739441
27090.0 64.729244
27100.0 64.719588
27110.0 64.712338
27120.0 64.705819
27130.0 64.700461
27140.0 64.696029
27150.0 64.690388
27160.0 64.685923
27170.0 64.682307
27180.0 64.680082
27190.0 64.677347
27200.0 64.674243
27210.0 64.673348
27220.0 64.673620
27230.0 64.674407
27240.0 64.676822
27250.0 64.679073
27260.0 64.682327
27270.0 64.686490
27280.0 64.691995
27290.0 64.698104
27300.0 64.704397
27310.0 64.709690
27320.0 64.716039
27330.0 64.721150
27340.0 64.725019
27350.0 64.729272
27360.0 64.734280
27370.0 64.738798
27380.0 64.744320
27390.0 64.752356
27400.0 64.761535
27410.0 64.773979
27420.0 64.787224
27430.0 64.801815
27440.0 64.815995
27450.0 64.832519
27460.0 64.848774
27470.0 64.864036
27480.0 64.878390
27490.0 64.891521
27500.0 64.904191
27510.0 64.916733
27520.0 64.929253
27530.0 64.943130
27540.0 64.955735
27550.0 64.968194
27560.0 64.981290
27570.0 64.993778
27580.0 65.005678
27590.0 65.018237
27600.0 65.032166
27610.0 65.046103
27620.0 65.060240
27630.0 65.075308
27640.0 65.090452
27650.0 65.104650
27660.0 65.118150
27670.0 65.130677
27680.0 65.141346
27690.0 65.151430
27700.0 65.160458
27710.0 65.171078
27720.0 65.183557
27730.0 65.197555
27740.0 65.210393
27750.0 65.224556
27760.0 65.240461
27770.0 65.256886
27780.0 65.273701
27790.0 65.291079
27800.0 65.311130
27810.0 65.331900
27820.0 65.352912
27830.0 65.374801
27840.0 65.395474
27850.0 65.415680
27860.0 65.436005
27870.0 65.458106
27880.0 65.480269
27890.0 65.500659
27900.0 65.520946
27910.0 65.539630
27920.0 65.558845
27930.0 65.577394
27940.0 65.596050
27950.0 65.614671
27960.0 65.633395
27970.0 65.651343
27980.0 65.668248
27990.0 65.682278
28000.0 65.695621
28010.0 65.708136
28020.0 65.720409
28030.0 65.730335
28040.0 65.740673
28050.0 65.752088
28060.0 65.763899
28070.0 65.778886
28080.0 65.793896
28090.0 65.809107
28100.0 65.824854
28110.0 65.840358
28120.0 65.853957
28130.0 65.867273
28140.0 65.882346
28150.0 65.898915
28160.0 65.914569
28170.0 65.928985
28180.0 65.941176
28190.0 65.955547
28200.0 65.970170
28210.0 65.987184
28220.0 66.002216
28230.0 66.017088
28240.0 66.032221
28250.0 66.048606
28260.0 66.063966
28270.0 66.079707
28280.0 66.095234
28290.0 66.110502
28300.0 66.126147
28310.0 66.143060
28320.0 66.158326
28330.0 66.175520
28340.0 66.193374
28350.0 66.211867
28360.0 66.231023
28370.0 66.249454
28380.0 66.269554
28390.0 66.290182
28400.0 66.311276
28410.0 66.333973
28420.0 66.356206
28430.0 66.377464
28440.0 66.396452
28450.0 66.416188
28460.0 66.433930
28470.0 66.453487
28480.0 66.473789
28490.0 66.492151
28500.0 66.509412
28510.0 66.527078
28520.0 66.548133
28530.0 66.569340
28540.0 66.589838
28550.0 66.609343
28560.0 66.628885
28570.0 66.648411
28580.0 66.666539
28590.0 66.683649
28600.0 66.699853
28610.0 66.716191
28620.0 66.731560
28630.0 66.747951
28640.0 66.763783
28650.0 66.781565
28660.0 66.800578
28670.0 66.819142
28680.0 66.837899
28690.0 66.856370
28700.0 66.873696
28710.0 66.892487
28720.0 66.913731
28730.0 66.937420
28740.0 66.961098
28750.0 66.985366
28760.0 67.009900
28770.0 67.033795
28780.0 67.059067
28790.0 67.080938
28800.0 67.103661
28810.0 67.124844
28820.0 67.147322
28830.0 67.172015
28840.0 67.195402
28850.0 67.215979
28860.0 67.236673
28870.0 67.259624
28880.0 67.283762
28890.0 67.308746
28900.0 67.332266
28910.0 67.357576
28920.0 67.383950
28930.0 67.409299
28940.0 67.431065
28950.0 67.452311
28960.0 67.475603
28970.0 67.500249
28980.0 67.524779
28990.0 67.549286
29000.0 67.574644
29010.0 67.601699
29020.0 67.629914
29030.0 67.658847
29040.0 67.687153
29050.0 67.714254
29060.0 67.740898
29070.0 67.766919
29080.0 67.790886
29090.0 67.814210
29100.0 67.838458
29110.0 67.860996
29120.0 67.882918
29130.0 67.904970
29140.0 67.927991
29150.0 67.951261
29160.0 67.973195
29170.0 67.993053
29180.0 68.011739
29190.0 68.029989
29200.0 68.048052
29210.0 68.067783
29220.0 68.086077
29230.0 68.103536
29240.0 68.120312
29250.0 68.137591
29260.0 68.153560
29270.0 68.166229
29280.0 68.178575
29290.0 68.190458
29300.0 68.201929
29310.0 68.214828
29320.0 68.227931
29330.0 68.241317
29340.0 68.255978
29350.0 68.270080
29360.0 68.283919
29370.0 68.296962
29380.0 68.309158
29390.0 68.323494
29400.0 68.338171
29410.0 68.352759
29420.0 68.368719
29430.0 68.383465
29440.0 68.398213
29450.0 68.414549
29460.0 68.431688
29470.0 68.449006
29480.0 68.467734
29490.0 68.488282
29500.0 68.509546
29510.0 68.529796
29520.0 68.549597
29530.0 68.568534
29540.0 68.586940
29550.0 68.603507
29560.0 68.620334
29570.0 68.635001
29580.0 68.649504
29590.0 68.664079
29600.0 68.680323
29610.0 68.696018
29620.0 68.711123
29630.0 68.726753
29640.0 68.742795
29650.0 68.760157
29660.0 68.776593
29670.0 68.791962
29680.0 68.807756
29690.0 68.823319
29700.0 68.837547
29710.0 68.850439
29720.0 68.864500
29730.0 68.876587
29740.0 68.888338
29750.0 68.900493
29760.0 68.912007
29770.0 68.923515
29780.0 68.934443
29790.0 68.944248
29800.0 68.953748
29810.0 68.963325
29820.0 68.973222
29830.0 68.982339
29840.0 68.993607
29850.0 69.004256
29860.0 69.013498
29870.0 69.022150
29880.0 69.032305
29890.0 69.041650
29900.0 69.050761
29910.0 69.059818
29920.0 69.068051
29930.0 69.077288
29940.0 69.088527
29950.0 69.099242
29960.0 69.106280
29970.0 69.112161
29980.0 69.117945
29990.0 69.123430
30000.0 69.129494
30010.0 69.134759
30020.0 69.138817
30030.0 69.142278
30040.0 69.147804
30050.0 69.154602
30060.0 69.161187
30070.0 69.165283
30080.0 69.169867
30090.0 69.174709
30100.0 69.178309
30110.0 69.182262
30120.0 69.184721
30130.0 69.186320
30140.0 69.187720
30150.0 69.189250
30160.0 69.188282
30170.0 69.188225
30180.0 69.188529
30190.0 69.189699
30200.0 69.192299
30210.0 69.197296
30220.0 69.201550
30230.0 69.206608
30240.0 69.213727
30250.0 69.221951
30260.0 69.230836
30270.0 69.240666
30280.0 69.247563
30290.0 69.255023
30300.0 69.261738
30310.0 69.269262
30320.0 69.277371
30330.0 69.285535
30340.0 69.293144
30350.0 69.300774
30360.0 69.308479
30370.0 69.317718
30380.0 69.327927
30390.0 69.338387
30400.0 69.348253
30410.0 69.356496
30420.0 69.363872
30430.0 69.370520
30440.0 69.377454
30450.0 69.383882
30460.0 69.389485
30470.0 69.393802
30480.0 69.397625
30490.0 69.401410
30500.0 69.405898
30510.0 69.410501
30520.0 69.415458
30530.0 69.419597
30540.0 69.423217
30550.0 69.426302
30560.0 69.428542
30570.0 69.431673
30580.0 69.436863
30590.0 69.441953
30600.0 69.445275
30610.0 69.448930
30620.0 69.452700
30630.0 69.455500
30640.0 69.459572
30650.0 69.466206
30660.0 69.473693
30670.0 69.481594
30680.0 69.488228
30690.0 69.495767
30700.0 69.502627
30710.0 69.509769
30720.0 69.516385
30730.0 69.523329
30740.0 69.530255
30750.0 69.536933
30760.0 69.543892
30770.0 69.550190
30780.0 69.558997
30790.0 69.568604
30800.0 69.577554
30810.0 69.585180
30820.0 69.591232
30830.0 69.598681
30840.0 69.607143
30850.0 69.615583
30860.0 69.623909
30870.0 69.633343
30880.0 69.643212
30890.0 69.654022
30900.0 69.664578
30910.0 69.674680
30920.0 69.681312
30930.0 69.686541
30940.0 69.693487
30950.0 69.703431
30960.0 69.715913
30970.0 69.729200
30980.0 69.742757
30990.0 69.755752
31000.0 69.768206
31010.0 69.781619
31020.0 69.794999
31030.0 69.808361
31040.0 69.822614
31050.0 69.836312
31060.0 69.849105
31070.0 69.862444
31080.0 69.876463
31090.0 69.891744
31100.0 69.908429
31110.0 69.925544
31120.0 69.942446
31130.0 69.958391
31140.0 69.974558
31150.0 69.992754
31160.0 70.009976
31170.0 70.027488
31180.0 70.046582
31190.0 70.064796
31200.0 70.084313
31210.0 70.103765
31220.0 70.123972
31230.0 70.144875
31240.0 70.164635
31250.0 70.182397
31260.0 70.202736
31270.0 70.224861
31280.0 70.246528
31290.0 70.269743
31300.0 70.293723
31310.0 70.318953
31320.0 70.344845
31330.0 70.371597
31340.0 70.400363
31350.0 70.428765
31360.0 70.456829
31370.0 70.484513
31380.0 70.512229
31390.0 70.538629
31400.0 70.567330
31410.0 70.596117
31420.0 70.622618
31430.0 70.649898
31440.0 70.681694
31450.0 70.715111
31460.0 70.748761
31470.0 70.782192
31480.0 70.816455
31490.0 70.850995
31500.0 70.885799
31510.0 70.921436
31520.0 70.955665
31530.0 70.991434
31540.0 71.029565
31550.0 71.067311
31560.0 71.102196
31570.0 71.136702
31580.0 71.172449
31590.0 71.206296
31600.0 71.240113
31610.0 71.274580
31620.0 71.310256
31630.0 71.346701
31640.0 71.382805
31650.0 71.420258
31660.0 71.458753
31670.0 71.496034
31680.0 71.533435
31690.0 71.570379
31700.0 71.607107
31710.0 71.645914
31720.0 71.685599
31730.0 71.727476
31740.0 71.769004
31750.0 71.808860
31760.0 71.850150
31770.0 71.891632
31780.0 71.932413
31790.0 71.973817
31800.0 72.016758
31810.0 72.061102
31820.0 72.106362
31830.0 72.152483
31840.0 72.198543
31850.0 72.244547
31860.0 72.291091
31870.0 72.336877
31880.0 72.382058
31890.0 72.424855
31900.0 72.468000
31910.0 72.511569
31920.0 72.555042
31930.0 72.600108
31940.0 72.647302
31950.0 72.695813
31960.0 72.746292
31970.0 72.795413
31980.0 72.844515
31990.0 72.894315
32000.0 72.943429
32010.0 72.992760
32020.0 73.041551
32030.0 73.092077
32040.0 73.142761
32050.0 73.192388
32060.0 73.242530
32070.0 73.293306
32080.0 73.344195
32090.0 73.395050
32100.0 73.447925
32110.0 73.503210
32120.0 73.560992
32130.0 73.616743
32140.0 73.672451
32150.0 73.726484
32160.0 73.780368
32170.0 73.834945
32180.0 73.889965
32190.0 73.946277
32200.0 74.003655
32210.0 74.060136
32220.0 74.117104
32230.0 74.173388
32240.0 74.228868
32250.0 74.282573
32260.0 74.336974
32270.0 74.391340
32280.0 74.445106
32290.0 74.497844
32300.0 74.551959
32310.0 74.606064
32320.0 74.658030
32330.0 74.708373
32340.0 74.757666
32350.0 74.807743
32360.0 74.859069
32370.0 74.910207
32380.0 74.961051
32390.0 75.010170
32400.0 75.057695
32410.0 75.103955
32420.0 75.148905
32430.0 75.195583
32440.0 75.242967
32450.0 75.289025
32460.0 75.335639
32470.0 75.382643
32480.0 75.428266
32490.0 75.473205
32500.0 75.519202
32510.0 75.564493
32520.0 75.608065
32530.0 75.653240
32540.0 75.699252
32550.0 75.745132
32560.0 75.789244
32570.0 75.831380
32580.0 75.871975
32590.0 75.914158
32600.0 75.957967
32610.0 75.999488
32620.0 76.040740
32630.0 76.081052
32640.0 76.119889
32650.0 76.156353
32660.0 76.193178
32670.0 76.228842
32680.0 76.263890
32690.0 76.297596
32700.0 76.329113
32710.0 76.359502
32720.0 76.388785
32730.0 76.419668
32740.0 76.450785
32750.0 76.481014
32760.0 76.510651
32770.0 76.540064
32780.0 76.568250
32790.0 76.595053
32800.0 76.621683
32810.0 76.648207
32820.0 76.675582
32830.0 76.702720
32840.0 76.729454
32850.0 76.752258
32860.0 76.772319
32870.0 76.792391
32880.0 76.813836
32890.0 76.835262
32900.0 76.856867
32910.0 76.878348
32920.0 76.901409
32930.0 76.924137
32940.0 76.946859
32950.0 76.970409
32960.0 76.993986
32970.0 77.017541
32980.0 77.042796
32990.0 77.068918
33000.0 77.094597
33010.0 77.119679
33020.0 77.144794
33030.0 77.169361
33040.0 77.195630
33050.0 77.223510
33060.0 77.251551
33070.0 77.282121
33080.0 77.313763
33090.0 77.346756
33100.0 77.380130
33110.0 77.414675
33120.0 77.447754
33130.0 77.479527
33140.0 77.510202
33150.0 77.541170
33160.0 77.571975
33170.0 77.602471
33180.0 77.634356
33190.0 77.667447
33200.0 77.701284
33210.0 77.733062
33220.0 77.762398
33230.0 77.792227
33240.0 77.822085
33250.0 77.850091
33260.0 77.877845
33270.0 77.906071
33280.0 77.934598
33290.0 77.961974
33300.0 77.987993
33310.0 78.012321
33320.0 78.035373
33330.0 78.058276
33340.0 78.082269
33350.0 78.106072
33360.0 78.128082
33370.0 78.151125
33380.0 78.176530
33390.0 78.200972
33400.0 78.225524
33410.0 78.251161
33420.0 78.276772
33430.0 78.302758
33440.0 78.326497
33450.0 78.350670
33460.0 78.376050
33470.0 78.401147
33480.0 78.427152
33490.0 78.452888
33500.0 78.479774
33510.0 78.505923
33520.0 78.531805
33530.0 78.559912
33540.0 78.587659
33550.0 78.614365
33560.0 78.641023
33570.0 78.666802
33580.0 78.692461
33590.0 78.717717
33600.0 78.743974
33610.0 78.770350
33620.0 78.797382
33630.0 78.824723
33640.0 78.853034
33650.0 78.882488
33660.0 78.912170
33670.0 78.942198
33680.0 78.972985
33690.0 79.003326
33700.0 79.033215
33710.0 79.062680
33720.0 79.091475
33730.0 79.117670
33740.0 79.144590
33750.0 79.172439
33760.0 79.201554
33770.0 79.231542
33780.0 79.262059
33790.0 79.291926
33800.0 79.322597
33810.0 79.352497
33820.0 79.382267
33830.0 79.412196
33840.0 79.441866
33850.0 79.469535
33860.0 79.497750
33870.0 79.527215
33880.0 79.556163
33890.0 79.586689
33900.0 79.617133
33910.0 79.646751
33920.0 79.676804
33930.0 79.707164
33940.0 79.737618
33950.0 79.767903
33960.0 79.800042
33970.0 79.833420
33980.0 79.867056
33990.0 79.900413
34000.0 79.934311
34010.0 79.967962
34020.0 79.999994
34030.0 80.031575
34040.0 80.062785
34050.0 80.093276
34060.0 80.123374
34070.0 80.153101
34080.0 80.181297
34090.0 80.208047
34100.0 80.233402
34110.0 80.260807
34120.0 80.291013
34130.0 80.319481
34140.0 80.348186
34150.0 80.377441
34160.0 80.406036
34170.0 80.434077
34180.0 80.462781
34190.0 80.491795
34200.0 80.521018
34210.0 80.549147
34220.0 80.576957
34230.0 80.604138
34240.0 80.630793
34250.0 80.656112
34260.0 80.681976
34270.0 80.708333
34280.0 80.733167
34290.0 80.757050
34300.0 80.782833
34310.0 80.809388
34320.0 80.837966
34330.0 80.868232
34340.0 80.898574
34350.0 80.929390
34360.0 80.960562
34370.0 80.990473
34380.0 81.021800
34390.0 81.052734
34400.0 81.084538
34410.0 81.114831
34420.0 81.144190
34430.0 81.174197
34440.0 81.203770
34450.0 81.235150
34460.0 81.267200
34470.0 81.299380
34480.0 81.332050
34490.0 81.362871
34500.0 81.392463
34510.0 81.423775
34520.0 81.456230
34530.0 81.489294
34540.0 81.522802
34550.0 81.556015
34560.0 81.587731
34570.0 81.616225
34580.0 81.645673
34590.0 81.676388
34600.0 81.706956
34610.0 81.734817
34620.0 81.763049
34630.0 81.792246
34640.0 81.821766
34650.0 81.850700
34660.0 81.880443
34670.0 81.909260
34680.0 81.938335
34690.0 81.966285
34700.0 81.993649
34710.0 82.020480
34720.0 82.049166
34730.0 82.077731
34740.0 82.106902
34750.0 82.138669
34760.0 82.170902
34770.0 82.202217
34780.0 82.233648
34790.0 82.265735
34800.0 82.296933
34810.0 82.327950
34820.0 82.357973
34830.0 82.388376
34840.0 82.419702
34850.0 82.449825
34860.0 82.479828
34870.0 82.510101
34880.0 82.540310
34890.0 82.570307
34900.0 82.599960
34910.0 82.629968
34920.0 82.659171
34930.0 82.686462
34940.0 82.713531
34950.0 82.741075
34960.0 82.771114
34970.0 82.802213
34980.0 82.833416
34990.0 82.864557
35000.0 82.893718
35010.0 82.921303
35020.0 82.948188
35030.0 82.975910
35040.0 83.005139
35050.0 83.035718
35060.0 83.067064
35070.0 83.099698
35080.0 83.132100
35090.0 83.163643
35100.0 83.194576
35110.0 83.224736
35120.0 83.253496
35130.0 83.281456
35140.0 83.308813
35150.0 83.335371
35160.0 83.361293
35170.0 83.387733
35180.0 83.414771
35190.0 83.441553
35200.0 83.468700
35210.0 83.495523
35220.0 83.522893
35230.0 83.550016
35240.0 83.578308
35250.0 83.606029
35260.0 83.637093
35270.0 83.668578
35280.0 83.699575
35290.0 83.731616
35300.0 83.762736
35310.0 83.794552
35320.0 83.826126
35330.0 83.857752
35340.0 83.888644
35350.0 83.918181
35360.0 83.947416
35370.0 83.975806
35380.0 84.004269
35390.0 84.033263
35400.0 84.063601
35410.0 84.094856
35420.0 84.127622
35430.0 84.160533
35440.0 84.195259
35450.0 84.230847
35460.0 84.267164
35470.0 84.303807
35480.0 84.340574
35490.0 84.376047
35500.0 84.410711
35510.0 84.446845
35520.0 84.481618
35530.0 84.513764
35540.0 84.545913
35550.0 84.578407
35560.0 84.610633
35570.0 84.643810
35580.0 84.675738
35590.0 84.706131
35600.0 84.736038
35610.0 84.765264
35620.0 84.794381
35630.0 84.824025
35640.0 84.853449
35650.0 84.883468
35660.0 84.914731
35670.0 84.946387
35680.0 84.978191
35690.0 85.011168
35700.0 85.045876
35710.0 85.079744
35720.0 85.112965
35730.0 85.145022
35740.0 85.175941
35750.0 85.208809
35760.0 85.243120
35770.0 85.277639
35780.0 85.312304
35790.0 85.347277
35800.0 85.383253
35810.0 85.419094
35820.0 85.456000
35830.0 85.495223
35840.0 85.533106
35850.0 85.569658
35860.0 85.606615
35870.0 85.643911
35880.0 85.682779
35890.0 85.721503
35900.0 85.758900
35910.0 85.795548
35920.0 85.831452
35930.0 85.867322
35940.0 85.902482
35950.0 85.938416
35960.0 85.974318
35970.0 86.010842
35980.0 86.045572
35990.0 86.079201
36000.0 86.111646
36010.0 86.144033
36020.0 86.176203
36030.0 86.208033
36040.0 86.238927
36050.0 86.269089
36060.0 86.297735
36070.0 86.325849
36080.0 86.353483
36090.0 86.379531
36100.0 86.405460
36110.0 86.431570
36120.0 86.458772
36130.0 86.484853
36140.0 86.512282
36150.0 86.540022
36160.0 86.566904
36170.0 86.594764
36180.0 86.624438
36190.0 86.653711
36200.0 86.682892
36210.0 86.711430
36220.0 86.739672
36230.0 86.768480
36240.0 86.796281
36250.0 86.822863
36260.0 86.848112
36270.0 86.873743
36280.0 86.899505
36290.0 86.927076
36300.0 86.954935
36310.0 86.982908
36320.0 87.010153
36330.0 87.038106
36340.0 87.066480
36350.0 87.095858
36360.0 87.123538
36370.0 87.151362
36380.0 87.180054
36390.0 87.206653
36400.0 87.233360
36410.0 87.261396
36420.0 87.289951
36430.0 87.320057
36440.0 87.349390
36450.0 87.379375
36460.0 87.408650
36470.0 87.436968
36480.0 87.463211
36490.0 87.489955
36500.0 87.516935
36510.0 87.543983
36520.0 87.570867
36530.0 87.598392
36540.0 87.626396
36550.0 87.653048
36560.0 87.678703
36570.0 87.704513
36580.0 87.730251
36590.0 87.755184
36600.0 87.777127
36610.0 87.797803
36620.0 87.815690
36630.0 87.834792
36640.0 87.853326
36650.0 87.871421
36660.0 87.889106
36670.0 87.907288
36680.0 87.925022
36690.0 87.941935
36700.0 87.957474
36710.0 87.971818
36720.0 87.986498
36730.0 88.001082
36740.0 88.016763
36750.0 88.032886
36760.0 88.048496
36770.0 88.063984
36780.0 88.078508
36790.0 88.092261
36800.0 88.107698
36810.0 88.123195
36820.0 88.138836
36830.0 88.153902
36840.0 88.168476
36850.0 88.182367
36860.0 88.196196
36870.0 88.210137
36880.0 88.224134
36890.0 88.237672
36900.0 88.249894
36910.0 88.262867
36920.0 88.274781
36930.0 88.286400
36940.0 88.297983
36950.0 88.310103
36960.0 88.321765
36970.0 88.331278
36980.0 88.341147
36990.0 88.350015
37000.0 88.358275
37010.0 88.364707
37020.0 88.372354
37030.0 88.381407
37040.0 88.390091
37050.0 88.399992
37060.0 88.410238
37070.0 88.422373
37080.0 88.434383
37090.0 88.447536
37100.0 88.459954
37110.0 88.471381
37120.0 88.480915
37130.0 88.489530
37140.0 88.497659
37150.0 88.507107
37160.0 88.518082
37170.0 88.529577
37180.0 88.541240
37190.0 88.553531
37200.0 88.567101
37210.0 88.580891
37220.0 88.594500
37230.0 88.608724
37240.0 88.624910
37250.0 88.642553
37260.0 88.659500
37270.0 88.675273
37280.0 88.691928
37290.0 88.710715
37300.0 88.730766
37310.0 88.752528
37320.0 88.775001
37330.0 88.796120
37340.0 88.816274
37350.0 88.836316
37360.0 88.857137
37370.0 88.878281
37380.0 88.898771
37390.0 88.917372
37400.0 88.935735
37410.0 88.955363
37420.0 88.974769
37430.0 88.994951
37440.0 89.016005
37450.0 89.036622
37460.0 89.057160
37470.0 89.077944
37480.0 89.098211
37490.0 89.119912
37500.0 89.142000
37510.0 89.164128
37520.0 89.186730
37530.0 89.209536
37540.0 89.231774
37550.0 89.254141
37560.0 89.276165
37570.0 89.298280
37580.0 89.319019
37590.0 89.339810
37600.0 89.359803
37610.0 89.378788
37620.0 89.399553
37630.0 89.420028
37640.0 89.442073
37650.0 89.463078
37660.0 89.484330
37670.0 89.505475
37680.0 89.525813
37690.0 89.545640
37700.0 89.565224
37710.0 89.584585
37720.0 89.602768
37730.0 89.620918
37740.0 89.638824
37750.0 89.657306
37760.0 89.676297
37770.0 89.695990
37780.0 89.714041
37790.0 89.732092
37800.0 89.749834
37810.0 89.768365
37820.0 89.786846
37830.0 89.805239
37840.0 89.824527
37850.0 89.842746
37860.0 89.860183
37870.0 89.878512
37880.0 89.896306
37890.0 89.914351
37900.0 89.932488
37910.0 89.950417
37920.0 89.968284
37930.0 89.986502
37940.0 90.004732
37950.0 90.022945
37960.0 90.041235
37970.0 90.058145
37980.0 90.074404
37990.0 90.088896
38000.0 90.102112
38010.0 90.113191
38020.0 90.124315
38030.0 90.134886
38040.0 90.144506
38050.0 90.154743
38060.0 90.165441
38070.0 90.176151
38080.0 90.186417
38090.0 90.195726
38100.0 90.204366
38110.0 90.213257
38120.0 90.221269
38130.0 90.229555
38140.0 90.237901
38150.0 90.246188
38160.0 90.254705
38170.0 90.264028
38180.0 90.273741
38190.0 90.284391
38200.0 90.295498
38210.0 90.308947
38220.0 90.322022
38230.0 90.336235
38240.0 90.350052
38250.0 90.363687
38260.0 90.376745
38270.0 90.387204
38280.0 90.396597
38290.0 90.406658
38300.0 90.418570
38310.0 90.430349
38320.0 90.442225
38330.0 90.455576
38340.0 90.470001
38350.0 90.483897
38360.0 90.498667
38370.0 90.514327
38380.0 90.529986
38390.0 90.544724
38400.0 90.558977
38410.0 90.572078
38420.0 90.586282
38430.0 90.601342
38440.0 90.616509
38450.0 90.631169
38460.0 90.646368
38470.0 90.661467
38480.0 90.676003
38490.0 90.691499
38500.0 90.705468
38510.0 90.719223
38520.0 90.732751
38530.0 90.746367
38540.0 90.760549
38550.0 90.774630
38560.0 90.789391
38570.0 90.805869
38580.0 90.824122
38590.0 90.844033
38600.0 90.863612
38610.0 90.881837
38620.0 90.899444
38630.0 90.916622
38640.0 90.933246
38650.0 90.950620
38660.0 90.967332
38670.0 90.983240
38680.0 90.998799
38690.0 91.015507
38700.0 91.033707
38710.0 91.052008
38720.0 91.070112
38730.0 91.087944
38740.0 91.106116
38750.0 91.124053
38760.0 91.142756
38770.0 91.162422
38780.0 91.183112
38790.0 91.203916
38800.0 91.224096
38810.0 91.244649
38820.0 91.264159
38830.0 91.282661
38840.0 91.300143
38850.0 91.318188
38860.0 91.335348
38870.0 91.353144
38880.0 91.371959
38890.0 91.392744
38900.0 91.413991
38910.0 91.435506
38920.0 91.456968
38930.0 91.478853
38940.0 91.500727
38950.0 91.523123
38960.0 91.548362
38970.0 91.574985
38980.0 91.601087
38990.0 91.627081
39000.0 91.652366
39010.0 91.677963
39020.0 91.703182
39030.0 91.727710
39040.0 91.753428
39050.0 91.782966
39060.0 91.813415
39070.0 91.842769
39080.0 91.871559
39090.0 91.898969
39100.0 91.927434
39110.0 91.956647
39120.0 91.984533
39130.0 92.013163
39140.0 92.042123
39150.0 92.070136
39160.0 92.097630
39170.0 92.124529
39180.0 92.150255
39190.0 92.175931
39200.0 92.203007
39210.0 92.230504
39220.0 92.256445
39230.0 92.281565
39240.0 92.305698
39250.0 92.330069
39260.0 92.354349
39270.0 92.379111
39280.0 92.405021
39290.0 92.430165
39300.0 92.455938
39310.0 92.482773
39320.0 92.509360
39330.0 92.537335
39340.0 92.566350
39350.0 92.594174
39360.0 92.621162
39370.0 92.647286
39380.0 92.673230
39390.0 92.697919
39400.0 92.722408
39410.0 92.745500
39420.0 92.768770
39430.0 92.792946
39440.0 92.817633
39450.0 92.843600
39460.0 92.869932
39470.0 92.897677
39480.0 92.925196
39490.0 92.952952
39500.0 92.980897
39510.0 93.009944
39520.0 93.039127
39530.0 93.067888
39540.0 93.096785
39550.0 93.126545
39560.0 93.155790
39570.0 93.183785
39580.0 93.210683
39590.0 93.237226
39600.0 93.263425
39610.0 93.290840
39620.0 93.318321
39630.0 93.346682
39640.0 93.375929
39650.0 93.407728
39660.0 93.439418
39670.0 93.469684
39680.0 93.499662
39690.0 93.527103
39700.0 93.554693
39710.0 93.581282
39720.0 93.608935
39730.0 93.637310
39740.0 93.666254
39750.0 93.695437
39760.0 93.724105
39770.0 93.750995
39780.0 93.777408
39790.0 93.803300
39800.0 93.829162
39810.0 93.855514
39820.0 93.883572
39830.0 93.912416
39840.0 93.941985
39850.0 93.971966
39860.0 94.002332
39870.0 94.033735
39880.0 94.064831
39890.0 94.096667
39900.0 94.127816
39910.0 94.158269
39920.0 94.187845
39930.0 94.217772
39940.0 94.248551
39950.0 94.279088
39960.0 94.309760
39970.0 94.339529
39980.0 94.369941
39990.0 94.399807
40000.0 94.428569
40010.0 94.455752
40020.0 94.482335
40030.0 94.509344
40040.0 94.537449
40050.0 94.567535
40060.0 94.597351
40070.0 94.626493
40080.0 94.654404
40090.0 94.682122
40100.0 94.710624
40110.0 94.737178
40120.0 94.763557
40130.0 94.790189
40140.0 94.816141
40150.0 94.842355
40160.0 94.867713
40170.0 94.893166
40180.0 94.918621
40190.0 94.943242
40200.0 94.967928
40210.0 94.991185
40220.0 95.013814
40230.0 95.037691
40240.0 95.062056
40250.0 95.087756
40260.0 95.114383
40270.0 95.141374
40280.0 95.168112
40290.0 95.195028
40300.0 95.223075
40310.0 95.252516
40320.0 95.282059
40330.0 95.312555
40340.0 95.340784
40350.0 95.369342
40360.0 95.398403
40370.0 95.427656
40380.0 95.456240
40390.0 95.484447
40400.0 95.510517
40410.0 95.536599
40420.0 95.562407
40430.0 95.588138
40440.0 95.612861
40450.0 95.636487
40460.0 95.660137
40470.0 95.684963
40480.0 95.709738
40490.0 95.733997
40500.0 95.759653
40510.0 95.786400
40520.0 95.811646
40530.0 95.836813
40540.0 95.861518
40550.0 95.884196
40560.0 95.904519
40570.0 95.922285
40580.0 95.939892
40590.0 95.957505
40600.0 95.974408
40610.0 95.989411
40620.0 96.003480
40630.0 96.016296
40640.0 96.029518
40650.0 96.042772
40660.0 96.056462
40670.0 96.070744
40680.0 96.085849
40690.0 96.100506
40700.0 96.113922
40710.0 96.125562
40720.0 96.135545
40730.0 96.143804
40740.0 96.152812
40750.0 96.161188
40760.0 96.169993
40770.0 96.178026
40780.0 96.183691
40790.0 96.187517
40800.0 96.191497
40810.0 96.196870
40820.0 96.201882
40830.0 96.207838
40840.0 96.215327
40850.0 96.223969
40860.0 96.234311
40870.0 96.245961
40880.0 96.258729
40890.0 96.273397
40900.0 96.287711
40910.0 96.302105
40920.0 96.316427
40930.0 96.331740
40940.0 96.347104
40950.0 96.361517
40960.0 96.374812
40970.0 96.387146
40980.0 96.398689
40990.0 96.409556
41000.0 96.420149
41010.0 96.430965
41020.0 96.442408
41030.0 96.453749
41040.0 96.465036
41050.0 96.476549
41060.0 96.486244
41070.0 96.494575
41080.0 96.502442
41090.0 96.508947
41100.0 96.514982
41110.0 96.521051
41120.0 96.526218
41130.0 96.530776
41140.0 96.534757
41150.0 96.538467
41160.0 96.541722
41170.0 96.544575
41180.0 96.546062
41190.0 96.548362
41200.0 96.549148
41210.0 96.549082
41220.0 96.549310
41230.0 96.551103
41240.0 96.553763
41250.0 96.556419
41260.0 96.560450
41270.0 96.564023
41280.0 96.567237
41290.0 96.571585
41300.0 96.574703
41310.0 96.577977
41320.0 96.580366
41330.0 96.583152
41340.0 96.587396
41350.0 96.594306
41360.0 96.600513
41370.0 96.607398
41380.0 96.615199
41390.0 96.621761
41400.0 96.629068
41410.0 96.637295
41420.0 96.645155
41430.0 96.652531
41440.0 96.659487
41450.0 96.667015
41460.0 96.674362
41470.0 96.680013
41480.0 96.686530
41490.0 96.693444
41500.0 96.700567
41510.0 96.708341
41520.0 96.716645
41530.0 96.725717
41540.0 96.735150
41550.0 96.744051
41560.0 96.752431
41570.0 96.759593
41580.0 96.767689
41590.0 96.777052
41600.0 96.785516
41610.0 96.793679
41620.0 96.802725
41630.0 96.811880
41640.0 96.822131
41650.0 96.833512
41660.0 96.844636
41670.0 96.853966
41680.0 96.863425
41690.0 96.873999
41700.0 96.885237
41710.0 96.896572
41720.0 96.907277
41730.0 96.917434
41740.0 96.927245
41750.0 96.937792
41760.0 96.948339
41770.0 96.959175
41780.0 96.969875
41790.0 96.980205
41800.0 96.991080
41810.0 97.002263
41820.0 97.012135
41830.0 97.020501
41840.0 97.027902
41850.0 97.035232
41860.0 97.041655
41870.0 97.048000
41880.0 97.053713
41890.0 97.058899
41900.0 97.063840
41910.0 97.069104
41920.0 97.074858
41930.0 97.082276
41940.0 97.090224
41950.0 97.098320
41960.0 97.106794
41970.0 97.114434
41980.0 97.121166
41990.0 97.129154
42000.0 97.138578
42010.0 97.146894
42020.0 97.155288
42030.0 97.162842
42040.0 97.170031
42050.0 97.177223
42060.0 97.184914
42070.0 97.192058
42080.0 97.197875
42090.0 97.204409
42100.0 97.209469
42110.0 97.213852
42120.0 97.220228
42130.0 97.226099
42140.0 97.231081
42150.0 97.234679
42160.0 97.236503
42170.0 97.240149
42180.0 97.245230
42190.0 97.249749
42200.0 97.254176
42210.0 97.257661
42220.0 97.260606
42230.0 97.263051
42240.0 97.266241
42250.0 97.270279
42260.0 97.273462
42270.0 97.276146
42280.0 97.277811
42290.0 97.279755
42300.0 97.282073
42310.0 97.284210
42320.0 97.285604
42330.0 97.285388
42340.0 97.284284
42350.0 97.282586
42360.0 97.280947
42370.0 97.278095
42380.0 97.274793
42390.0 97.270838
42400.0 97.267168
42410.0 97.263584
42420.0 97.260585
42430.0 97.258315
42440.0 97.256166
42450.0 97.253704
42460.0 97.251545
42470.0 97.249221
42480.0 97.246282
42490.0 97.242040
42500.0 97.236692
42510.0 97.229868
42520.0 97.222644
42530.0 97.214442
42540.0 97.206396
42550.0 97.200551
42560.0 97.195780
42570.0 97.190913
42580.0 97.186603
42590.0 97.182945
42600.0 97.180552
42610.0 97.178547
42620.0 97.175370
42630.0 97.172693
42640.0 97.168790
42650.0 97.164044
42660.0 97.161378
42670.0 97.159477
42680.0 97.158538
42690.0 97.157658
42700.0 97.157594
42710.0 97.157045
42720.0 97.156650
42730.0 97.156745
42740.0 97.156598
42750.0 97.154872
42760.0 97.153088
42770.0 97.150181
42780.0 97.146786
42790.0 97.143236
42800.0 97.139828
42810.0 97.136357
42820.0 97.133541
42830.0 97.130800
42840.0 97.128530
42850.0 97.126273
42860.0 97.124242
42870.0 97.122239
42880.0 97.121222
42890.0 97.120063
42900.0 97.118636
42910.0 97.116895
42920.0 97.114427
42930.0 97.112704
42940.0 97.111635
42950.0 97.109525
42960.0 97.107404
42970.0 97.105046
42980.0 97.102683
42990.0 97.101894
43000.0 97.101760
43010.0 97.102311
43020.0 97.102200
43030.0 97.101093
43040.0 97.099516
43050.0 97.098579
43060.0 97.099250
43070.0 97.101133
43080.0 97.103184
43090.0 97.103753
43100.0 97.103413
43110.0 97.103484
43120.0 97.104222
43130.0 97.105170
43140.0 97.106677
43150.0 97.107617
43160.0 97.108313
43170.0 97.106511
43180.0 97.104013
43190.0 97.100740
43200.0 97.098133
43210.0 97.095651
43220.0 97.091769
43230.0 97.088073
43240.0 97.085240
43250.0 97.083575
43260.0 97.081926
43270.0 97.078785
43280.0 97.075110
43290.0 97.071234
43300.0 97.067701
43310.0 97.062984
43320.0 97.056847
43330.0 97.050505
43340.0 97.043475
43350.0 97.035621
43360.0 97.027634
43370.0 97.018787
43380.0 97.009741
43390.0 97.001451
43400.0 96.991866
43410.0 96.982226
43420.0 96.972010
43430.0 96.961161
43440.0 96.950957
43450.0 96.940121
43460.0 96.929769
43470.0 96.920115
43480.0 96.910894
43490.0 96.902630
43500.0 96.895116
43510.0 96.888194
43520.0 96.879591
43530.0 96.869541
43540.0 96.858048
43550.0 96.846695
43560.0 96.834854
43570.0 96.822620
43580.0 96.810380
43590.0 96.798881
43600.0 96.788368
43610.0 96.778190
43620.0 96.767269
43630.0 96.757089
43640.0 96.748014
43650.0 96.739811
43660.0 96.731561
43670.0 96.722118
43680.0 96.713466
43690.0 96.705904
43700.0 96.697997
43710.0 96.689857
43720.0 96.681698
43730.0 96.673514
43740.0 96.667349
43750.0 96.663151
43760.0 96.659461
43770.0 96.654479
43780.0 96.650765
43790.0 96.646780
43800.0 96.641135
43810.0 96.635010
43820.0 96.629123
43830.0 96.624569
43840.0 96.621038
43850.0 96.617415
43860.0 96.612224
43870.0 96.607547
43880.0 96.603150
43890.0 96.598288
43900.0 96.593442
43910.0 96.587979
43920.0 96.581979
43930.0 96.576008
43940.0 96.570016
43950.0 96.563181
43960.0 96.556549
43970.0 96.552137
43980.0 96.548363
43990.0 96.546037
44000.0 96.543196
44010.0 96.539870
44020.0 96.537511
44030.0 96.535918
44040.0 96.533992
44050.0 96.532068
44060.0 96.529654
44070.0 96.526971
44080.0 96.524662
44090.0 96.524119
44100.0 96.523837
44110.0 96.522390
44120.0 96.520729
44130.0 96.518782
44140.0 96.516677
44150.0 96.514591
44160.0 96.511858
44170.0 96.510113
44180.0 96.509718
44190.0 96.510134
44200.0 96.511594
44210.0 96.512698
44220.0 96.512960
44230.0 96.513294
44240.0 96.512967
44250.0 96.512992
44260.0 96.512501
44270.0 96.512047
44280.0 96.513599
44290.0 96.514418
44300.0 96.514712
44310.0 96.515207
44320.0 96.515321
44330.0 96.514977
44340.0 96.514677
44350.0 96.514473
44360.0 96.513872
44370.0 96.513769
44380.0 96.514423
44390.0 96.515619
44400.0 96.516138
44410.0 96.516601
44420.0 96.517210
44430.0 96.518796
44440.0 96.522434
44450.0 96.526241
44460.0 96.530997
44470.0 96.535116
44480.0 96.538251
44490.0 96.540900
44500.0 96.543931
44510.0 96.547321
44520.0 96.549821
44530.0 96.552474
44540.0 96.555369
44550.0 96.558625
44560.0 96.562451
44570.0 96.566614
44580.0 96.569617
44590.0 96.571584
44600.0 96.574192
44610.0 96.578668
44620.0 96.582914
44630.0 96.587468
44640.0 96.593035
44650.0 96.599115
44660.0 96.602851
44670.0 96.605473
44680.0 96.607251
44690.0 96.607431
44700.0 96.606062
44710.0 96.604839
44720.0 96.604457
44730.0 96.602752
44740.0 96.601726
44750.0 96.600543
44760.0 96.599124
44770.0 96.596923
44780.0 96.594327
44790.0 96.591607
44800.0 96.588294
44810.0 96.585757
44820.0 96.583948
44830.0 96.582079
44840.0 96.578934
44850.0 96.575502
44860.0 96.571756
44870.0 96.567950
44880.0 96.565053
44890.0 96.562631
44900.0 96.560837
44910.0 96.558419
44920.0 96.556541
44930.0 96.556247
44940.0 96.556035
44950.0 96.556240
44960.0 96.557232
44970.0 96.557819
44980.0 96.557360
44990.0 96.557213
45000.0 96.557289
45010.0 96.558482
45020.0 96.559595
45030.0 96.561205
45040.0 96.563825
45050.0 96.566436
45060.0 96.568451
45070.0 96.570066
45080.0 96.571753
45090.0 96.572777
45100.0 96.573735
45110.0 96.574948
45120.0 96.575393
45130.0 96.575835
45140.0 96.577183
45150.0 96.578294
45160.0 96.580568
45170.0 96.583780
45180.0 96.588090
45190.0 96.592357
45200.0 96.597104
45210.0 96.601405
45220.0 96.606933
45230.0 96.612223
45240.0 96.616678
45250.0 96.621275
45260.0 96.625061
45270.0 96.628734
45280.0 96.633162
45290.0 96.637569
45300.0 96.642775
45310.0 96.648475
45320.0 96.653130
45330.0 96.656887
45340.0 96.661469
45350.0 96.667535
45360.0 96.676087
45370.0 96.686050
45380.0 96.696882
45390.0 96.708246
45400.0 96.718657
45410.0 96.727637
45420.0 96.737236
45430.0 96.747136
45440.0 96.759551
45450.0 96.772783
45460.0 96.786221
45470.0 96.800269
45480.0 96.814479
45490.0 96.828938
45500.0 96.843620
45510.0 96.858238
45520.0 96.872828
45530.0 96.886633
45540.0 96.900739
45550.0 96.915209
45560.0 96.928611
45570.0 96.942587
45580.0 96.957246
45590.0 96.971339
45600.0 96.985560
45610.0 96.999650
45620.0 97.013144
45630.0 97.025814
45640.0 97.037589
45650.0 97.049116
45660.0 97.059662
45670.0 97.069831
45680.0 97.078216
45690.0 97.086451
45700.0 97.094533
45710.0 97.103065
45720.0 97.112538
45730.0 97.123295
45740.0 97.134840
45750.0 97.147463
45760.0 97.160901
45770.0 97.175943
45780.0 97.190770
45790.0 97.205244
45800.0 97.219784
45810.0 97.234554
45820.0 97.248146
45830.0 97.261878
45840.0 97.274138
45850.0 97.285748
45860.0 97.298555
45870.0 97.311295
45880.0 97.323012
45890.0 97.334631
45900.0 97.346575
45910.0 97.358996
45920.0 97.372779
45930.0 97.387783
45940.0 97.402980
45950.0 97.417600
45960.0 97.432409
45970.0 97.446651
45980.0 97.459659
45990.0 97.472653
46000.0 97.485033
46010.0 97.497523
46020.0 97.509703
46030.0 97.521696
46040.0 97.534536
46050.0 97.547712
46060.0 97.560767
46070.0 97.574148
46080.0 97.587852
46090.0 97.601432
46100.0 97.616246
46110.0 97.632402
46120.0 97.649054
46130.0 97.665080
46140.0 97.681281
46150.0 97.696736
46160.0 97.711643
46170.0 97.726227
46180.0 97.741113
46190.0 97.756290
46200.0 97.773745
46210.0 97.792882
46220.0 97.812266
46230.0 97.830860
46240.0 97.849607
46250.0 97.868840
46260.0 97.889264
46270.0 97.909845
46280.0 97.930101
46290.0 97.950313
46300.0 97.970110
46310.0 97.990431
46320.0 98.011390
46330.0 98.032578
46340.0 98.053776
46350.0 98.074648
46360.0 98.095017
46370.0 98.114880
46380.0 98.134498
46390.0 98.153036
46400.0 98.171972
46410.0 98.190695
46420.0 98.210558
46430.0 98.229504
46440.0 98.246875
46450.0 98.264019
46460.0 98.282095
46470.0 98.300960
46480.0 98.318648
46490.0 98.336452
46500.0 98.354834
46510.0 98.373643
46520.0 98.392878
46530.0 98.411476
46540.0 98.429780
46550.0 98.448186
46560.0 98.465616
46570.0 98.483229
46580.0 98.500465
46590.0 98.518311
46600.0 98.536676
46610.0 98.555177
46620.0 98.572724
46630.0 98.590157
46640.0 98.607317
46650.0 98.623552
46660.0 98.639455
46670.0 98.656134
46680.0 98.673264
46690.0 98.690753
46700.0 98.707604
46710.0 98.724338
46720.0 98.741134
46730.0 98.757984
46740.0 98.776009
46750.0 98.793905
46760.0 98.810869
46770.0 98.826743
46780.0 98.841737
46790.0 98.857203
46800.0 98.873697
46810.0 98.891533
46820.0 98.908648
46830.0 98.925205
46840.0 98.941845
46850.0 98.958226
46860.0 98.975082
46870.0 98.992628
46880.0 99.010864
46890.0 99.028870
46900.0 99.046549
46910.0 99.064894
46920.0 99.083441
46930.0 99.103383
46940.0 99.123647
46950.0 99.143539
46960.0 99.163461
46970.0 99.182381
46980.0 99.201203
46990.0 99.220191
47000.0 99.238186
47010.0 99.255380
47020.0 99.271634
47030.0 99.288328
47040.0 99.305343
47050.0 99.322658
47060.0 99.339427
47070.0 99.356032
47080.0 99.372755
47090.0 99.390132
47100.0 99.408381
47110.0 99.427528
47120.0 99.447865
47130.0 99.468794
47140.0 99.489498
47150.0 99.512051
47160.0 99.535930
47170.0 99.559815
47180.0 99.582956
47190.0 99.605214
47200.0 99.626352
47210.0 99.648101
47220.0 99.670900
47230.0 99.694198
47240.0 99.715277
47250.0 99.735041
47260.0 99.752929
47270.0 99.770037
47280.0 99.786335
47290.0 99.803166
47300.0 99.820630
47310.0 99.839145
47320.0 99.858787
47330.0 99.878246
47340.0 99.896558
47350.0 99.915132
47360.0 99.933457
47370.0 99.951950
47380.0 99.969935
47390.0 99.986586
47400.0 100.002858
47410.0 100.019329
47420.0 100.035188
47430.0 100.050731
47440.0 100.066233
47450.0 100.081090
47460.0 100.094914
47470.0 100.107816
47480.0 100.120479
47490.0 100.132250
47500.0 100.143228
47510.0 100.153632
47520.0 100.164092
47530.0 100.173526
47540.0 100.182781
47550.0 100.191969
47560.0 100.201744
47570.0 100.211986
47580.0 100.222546
47590.0 100.233922
47600.0 100.245088
47610.0 100.256080
47620.0 100.265108
47630.0 100.272819
47640.0 100.280080
47650.0 100.288159
47660.0 100.295420
47670.0 100.302187
47680.0 100.309255
47690.0 100.316666
47700.0 100.323693
47710.0 100.329842
47720.0 100.336040
47730.0 100.342036
47740.0 100.348626
47750.0 100.356444
47760.0 100.364882
47770.0 100.372648
47780.0 100.380799
47790.0 100.388992
47800.0 100.397294
47810.0 100.405386
47820.0 100.413348
47830.0 100.422861
47840.0 100.431876
47850.0 100.441368
47860.0 100.450988
47870.0 100.460092
47880.0 100.469003
47890.0 100.477747
47900.0 100.485709
47910.0 100.493410
47920.0 100.500530
47930.0 100.506870
47940.0 100.512408
47950.0 100.517772
47960.0 100.523346
47970.0 100.528078
47980.0 100.533296
47990.0 100.539473
48000.0 100.546558
48010.0 100.554313
48020.0 100.561816
48030.0 100.569680
48040.0 100.577047
48050.0 100.583476
48060.0 100.589062
48070.0 100.593696
48080.0 100.598134
48090.0 100.603640
48100.0 100.609744
48110.0 100.616944
48120.0 100.624450
48130.0 100.631722
48140.0 100.637865
48150.0 100.643318
48160.0 100.647196
48170.0 100.651420
48180.0 100.656254
48190.0 100.661862
48200.0 100.667452
48210.0 100.673994
48220.0 100.680453
48230.0 100.686581
48240.0 100.692343
48250.0 100.697580
48260.0 100.702591
48270.0 100.707900
48280.0 100.711942
48290.0 100.716043
48300.0 100.718843
48310.0 100.722016
48320.0 100.725114
48330.0 100.729051
48340.0 100.733742
48350.0 100.739033
48360.0 100.744978
48370.0 100.752255
48380.0 100.760835
48390.0 100.770013
48400.0 100.779323
48410.0 100.789504
48420.0 100.799114
48430.0 100.809499
48440.0 100.820450
48450.0 100.832393
48460.0 100.843514
48470.0 100.855342
48480.0 100.868668
48490.0 100.881816
48500.0 100.895370
48510.0 100.908096
48520.0 100.920096
48530.0 100.932359
48540.0 100.943581
48550.0 100.953069
48560.0 100.962435
48570.0 100.971516
48580.0 100.980376
48590.0 100.989967
48600.0 100.999965
48610.0 101.009737
48620.0 101.019330
48630.0 101.028373
48640.0 101.037614
48650.0 101.047575
48660.0 101.058297
48670.0 101.070816
48680.0 101.083082
48690.0 101.096278
48700.0 101.109852
48710.0 101.123429
48720.0 101.136587
48730.0 101.149732
48740.0 101.163992
48750.0 101.177410
48760.0 101.189214
48770.0 101.200510
48780.0 101.210924
48790.0 101.221520
48800.0 101.232662
48810.0 101.243362
48820.0 101.254174
48830.0 101.265989
48840.0 101.277666
48850.0 101.288747
48860.0 101.301181
48870.0 101.313646
48880.0 101.324964
48890.0 101.335874
48900.0 101.347985
48910.0 101.360128
48920.0 101.373309
48930.0 101.388146
48940.0 101.401976
48950.0 101.415253
48960.0 101.428929
48970.0 101.444332
48980.0 101.459090
48990.0 101.472813
49000.0 101.485969
49010.0 101.498963
49020.0 101.512482
49030.0 101.526236
49040.0 101.541158
49050.0 101.556072
49060.0 101.570438
49070.0 101.585850
49080.0 101.601024
49090.0 101.616169
49100.0 101.630785
49110.0 101.645243
49120.0 101.658652
49130.0 101.671902
49140.0 101.685195
49150.0 101.699816
49160.0 101.714706
49170.0 101.730255
49180.0 101.745474
49190.0 101.760656
49200.0 101.775923
49210.0 101.791584
49220.0 101.807321
49230.0 101.822452
49240.0 101.836973
49250.0 101.851467
49260.0 101.865810
49270.0 101.881225
49280.0 101.896418
49290.0 101.911485
49300.0 101.926416
49310.0 101.940759
49320.0 101.954987
49330.0 101.969018
49340.0 101.984274
49350.0 101.998291
49360.0 102.011475
49370.0 102.025083
49380.0 102.039449
49390.0 102.053696
49400.0 102.068507
49410.0 102.083109
49420.0 102.097523
49430.0 102.111311
49440.0 102.125293
49450.0 102.140099
49460.0 102.155164
49470.0 102.170799
49480.0 102.186749
49490.0 102.203254
49500.0 102.221259
49510.0 102.238435
49520.0 102.256034
49530.0 102.274006
49540.0 102.290599
49550.0 102.307695
49560.0 102.324292
49570.0 102.340098
49580.0 102.356074
49590.0 102.372941
49600.0 102.390436
49610.0 102.407305
49620.0 102.423835
49630.0 102.440169
49640.0 102.456778
49650.0 102.473701
49660.0 102.490173
49670.0 102.506473
49680.0 102.520726
49690.0 102.534511
49700.0 102.548242
49710.0 102.560834
49720.0 102.573856
49730.0 102.586009
49740.0 102.598068
49750.0 102.610594
49760.0 102.623527
49770.0 102.637092
49780.0 102.650236
49790.0 102.663547
49800.0 102.676673
49810.0 102.690345
49820.0 102.704832
49830.0 102.719143
49840.0 102.733225
49850.0 102.747756
49860.0 102.761951
49870.0 102.774547
49880.0 102.788819
49890.0 102.803578
49900.0 102.817788
49910.0 102.830802
49920.0 102.844021
49930.0 102.857204
49940.0 102.870336
49950.0 102.883645
49960.0 102.896981
49970.0 102.910377
49980.0 102.922639
49990.0 102.934566
50000.0 102.946180
50010.0 102.958278
50020.0 102.970418
50030.0 102.982747
50040.0 102.994891
50050.0 103.008552
50060.0 103.023723
50070.0 103.039704
50080.0 103.055759
50090.0 103.072275
50100.0 103.089143
50110.0 103.106479
50120.0 103.123307
50130.0 103.139665
50140.0 103.155817
50150.0 103.172707
50160.0 103.190567
50170.0 103.207715
50180.0 103.225219
50190.0 103.242094
50200.0 103.259877
50210.0 103.277702
50220.0 103.295141
50230.0 103.312335
50240.0 103.329243
50250.0 103.347822
50260.0 103.366356
50270.0 103.384205
50280.0 103.401266
50290.0 103.419040
50300.0 103.436305
50310.0 103.453477
50320.0 103.471355
50330.0 103.489327
50340.0 103.506654
50350.0 103.524511
50360.0 103.543819
50370.0 103.562272
50380.0 103.580133
50390.0 103.597681
50400.0 103.614123
50410.0 103.630037
50420.0 103.646447
50430.0 103.662137
50440.0 103.677530
50450.0 103.693201
50460.0 103.708852
50470.0 103.723828
50480.0 103.738444
50490.0 103.752884
50500.0 103.765925
50510.0 103.777949
50520.0 103.790960
50530.0 103.804718
50540.0 103.818758
50550.0 103.834318
50560.0 103.849920
50570.0 103.865868
50580.0 103.882178
50590.0 103.897473
50600.0 103.912505
50610.0 103.927222
50620.0 103.941476
50630.0 103.955680
50640.0 103.970746
50650.0 103.984887
50660.0 103.999476
50670.0 104.014094
50680.0 104.029439
50690.0 104.044992
50700.0 104.059650
50710.0 104.073969
50720.0 104.090185
50730.0 104.106708
50740.0 104.122986
50750.0 104.139848
50760.0 104.156468
50770.0 104.171979
50780.0 104.186977
50790.0 104.203004
50800.0 104.219747
50810.0 104.236320
50820.0 104.253301
50830.0 104.268787
50840.0 104.282964
50850.0 104.297685
50860.0 104.311954
50870.0 104.325659
50880.0 104.339381
50890.0 104.353711
50900.0 104.368021
50910.0 104.382178
50920.0 104.395988
50930.0 104.411692
50940.0 104.428969
50950.0 104.447966
50960.0 104.467318
50970.0 104.486313
50980.0 104.505479
50990.0 104.524892
51000.0 104.544709
51010.0 104.564210
51020.0 104.584019
51030.0 104.603890
51040.0 104.623957
51050.0 104.644034
51060.0 104.663836
51070.0 104.683123
51080.0 104.701503
51090.0 104.718975
51100.0 104.736442
51110.0 104.754002
51120.0 104.771843
51130.0 104.789617
51140.0 104.806597
51150.0 104.824471
51160.0 104.842649
51170.0 104.860504
51180.0 104.877522
51190.0 104.894971
51200.0 104.912348
51210.0 104.929049
51220.0 104.945397
51230.0 104.961809
51240.0 104.978690
51250.0 104.995340
51260.0 105.011875
51270.0 105.028565
51280.0 105.045544
51290.0 105.061982
51300.0 105.078630
51310.0 105.095420
51320.0 105.112991
51330.0 105.129600
51340.0 105.146035
51350.0 105.162957
51360.0 105.179928
51370.0 105.195843
51380.0 105.211400
51390.0 105.227252
51400.0 105.243689
51410.0 105.260324
51420.0 105.275684
51430.0 105.290522
51440.0 105.305304
51450.0 105.320560
51460.0 105.337063
51470.0 105.353355
51480.0 105.369843
51490.0 105.388250
51500.0 105.407884
51510.0 105.426935
51520.0 105.445245
51530.0 105.462545
51540.0 105.479185
51550.0 105.495022
51560.0 105.510890
51570.0 105.526651
51580.0 105.541781
51590.0 105.556941
51600.0 105.571312
51610.0 105.585650
51620.0 105.600547
51630.0 105.615568
51640.0 105.630522
51650.0 105.644890
51660.0 105.659366
51670.0 105.673025
51680.0 105.686855
51690.0 105.700012
51700.0 105.714526
51710.0 105.728208
51720.0 105.741734
51730.0 105.756355
51740.0 105.770815
51750.0 105.785155
51760.0 105.799074
51770.0 105.813220
51780.0 105.826497
51790.0 105.839295
51800.0 105.852503
51810.0 105.865954
51820.0 105.880565
51830.0 105.895374
51840.0 105.909318
51850.0 105.924207
51860.0 105.940006
51870.0 105.957115
51880.0 105.973856
51890.0 105.990279
51900.0 106.006848
51910.0 106.023036
51920.0 106.038982
51930.0 106.054420
51940.0 106.069447
51950.0 106.083799
51960.0 106.097583
51970.0 106.111673
51980.0 106.125861
51990.0 106.140646
52000.0 106.156082
52010.0 106.171745
52020.0 106.187375
52030.0 106.204074
52040.0 106.221561
52050.0 106.238946
52060.0 106.255857
52070.0 106.273430
52080.0 106.291593
52090.0 106.309465
52100.0 106.326936
52110.0 106.344722
52120.0 106.363065
52130.0 106.382691
52140.0 106.403635
52150.0 106.424789
52160.0 106.446345
52170.0 106.467009
52180.0 106.487750
52190.0 106.507606
52200.0 106.527463
52210.0 106.547957
52220.0 106.568404
52230.0 106.587891
52240.0 106.607042
52250.0 106.625814
52260.0 106.643748
52270.0 106.661939
52280.0 106.680403
52290.0 106.698976
52300.0 106.716523
52310.0 106.733779
52320.0 106.751464
52330.0 106.769289
52340.0 106.788346
52350.0 106.807463
52360.0 106.826945
52370.0 106.845891
52380.0 106.865465
52390.0 106.885565
52400.0 106.906189
52410.0 106.926658
52420.0 106.946402
52430.0 106.965753
52440.0 106.985267
52450.0 107.004888
52460.0 107.024874
52470.0 107.045511
52480.0 107.066555
52490.0 107.087171
52500.0 107.106050
52510.0 107.124907
52520.0 107.144084
52530.0 107.163122
52540.0 107.180569
52550.0 107.198231
52560.0 107.216066
52570.0 107.233152
52580.0 107.249772
52590.0 107.266319
52600.0 107.283430
52610.0 107.300262
52620.0 107.316772
52630.0 107.332490
52640.0 107.346868
52650.0 107.360893
52660.0 107.374584
52670.0 107.387969
52680.0 107.400974
52690.0 107.413220
52700.0 107.426713
52710.0 107.441208
52720.0 107.455629
52730.0 107.469176
52740.0 107.482035
52750.0 107.493713
52760.0 107.506263
52770.0 107.518821
52780.0 107.530841
52790.0 107.542651
52800.0 107.555277
52810.0 107.566581
52820.0 107.576568
52830.0 107.586589
52840.0 107.596460
52850.0 107.606805
52860.0 107.617845
52870.0 107.629888
52880.0 107.641435
52890.0 107.653217
52900.0 107.663865
52910.0 107.675068
52920.0 107.685540
52930.0 107.696503
52940.0 107.707573
52950.0 107.717906
52960.0 107.727588
52970.0 107.735888
52980.0 107.743667
52990.0 107.751305
53000.0 107.760794
53010.0 107.770566
53020.0 107.780290
53030.0 107.790997
53040.0 107.802454
53050.0 107.814460
53060.0 107.827461
53070.0 107.840347
53080.0 107.853403
53090.0 107.867348
53100.0 107.881456
53110.0 107.897228
53120.0 107.914157
53130.0 107.931085
53140.0 107.947731
53150.0 107.965021
53160.0 107.982593
53170.0 108.001111
53180.0 108.019998
53190.0 108.038770
53200.0 108.058136
53210.0 108.077327
53220.0 108.096381
53230.0 108.115610
53240.0 108.134898
53250.0 108.154871
53260.0 108.177037
53270.0 108.200140
53280.0 108.223362
53290.0 108.246488
53300.0 108.269465
53310.0 108.292815
53320.0 108.315513
53330.0 108.337228
53340.0 108.357757
53350.0 108.378232
53360.0 108.397971
53370.0 108.417138
53380.0 108.435518
53390.0 108.454778
53400.0 108.473177
53410.0 108.492117
53420.0 108.513017
53430.0 108.533461
53440.0 108.553811
53450.0 108.572771
53460.0 108.591007
53470.0 108.610591
53480.0 108.630080
53490.0 108.648938
53500.0 108.667471
53510.0 108.685738
53520.0 108.703563
53530.0 108.720573
53540.0 108.736552
53550.0 108.752880
53560.0 108.768755
53570.0 108.784643
53580.0 108.799867
53590.0 108.814854
53600.0 108.830225
53610.0 108.845867
53620.0 108.862273
53630.0 108.879291
53640.0 108.895124
53650.0 108.910018
53660.0 108.923989
53670.0 108.937476
53680.0 108.951781
53690.0 108.966020
53700.0 108.979749
53710.0 108.994082
53720.0 109.008373
53730.0 109.021868
53740.0 109.035075
53750.0 109.047850
53760.0 109.061488
53770.0 109.075748
53780.0 109.089787
53790.0 109.103486
53800.0 109.117009
53810.0 109.129382
53820.0 109.142520
53830.0 109.156572
53840.0 109.170043
53850.0 109.184173
53860.0 109.197980
53870.0 109.211846
53880.0 109.225394
53890.0 109.239460
53900.0 109.252884
53910.0 109.266861
53920.0 109.281147
53930.0 109.295053
53940.0 109.307679
53950.0 109.321139
53960.0 109.333555
53970.0 109.344795
53980.0 109.356073
53990.0 109.366688
54000.0 109.377799
54010.0 109.387925
54020.0 109.397433
54030.0 109.406059
54040.0 109.415216
54050.0 109.424519
54060.0 109.434230
54070.0 109.445154
54080.0 109.457254
54090.0 109.469630
54100.0 109.482958
54110.0 109.495733
54120.0 109.507824
54130.0 109.519029
54140.0 109.530113
54150.0 109.541436
54160.0 109.551940
54170.0 109.561363
54180.0 109.571052
54190.0 109.581439
54200.0 109.591633
54210.0 109.601291
54220.0 109.611733
54230.0 109.621013
54240.0 109.629896
54250.0 109.638747
54260.0 109.647575
54270.0 109.656190
54280.0 109.665398
54290.0 109.674366
54300.0 109.683885
54310.0 109.694121
54320.0 109.704112
54330.0 109.714183
54340.0 109.724454
54350.0 109.734191
54360.0 109.744373
54370.0 109.754764
54380.0 109.765280
54390.0 109.776198
54400.0 109.787243
54410.0 109.799469
54420.0 109.812802
54430.0 109.827128
54440.0 109.842465
54450.0 109.859454
54460.0 109.877442
54470.0 109.895661
54480.0 109.913030
54490.0 109.930277
54500.0 109.947601
54510.0 109.965679
54520.0 109.982753
54530.0 109.999028
54540.0 110.015286
54550.0 110.031467
54560.0 110.048343
54570.0 110.064854
54580.0 110.080780
54590.0 110.096894
54600.0 110.113091
54610.0 110.129380
54620.0 110.144408
54630.0 110.159832
54640.0 110.174500
54650.0 110.189009
54660.0 110.203532
54670.0 110.217952
54680.0 110.232665
54690.0 110.248586
54700.0 110.266078
54710.0 110.283566
54720.0 110.300085
54730.0 110.316273
54740.0 110.333025
54750.0 110.350289
54760.0 110.368260
54770.0 110.386679
54780.0 110.404945
54790.0 110.422419
54800.0 110.438761
54810.0 110.454299
54820.0 110.469503
54830.0 110.484790
54840.0 110.499818
54850.0 110.514711
54860.0 110.529509
54870.0 110.544013
54880.0 110.557229
54890.0 110.569575
54900.0 110.581598
54910.0 110.594104
54920.0 110.606264
54930.0 110.618467
54940.0 110.630685
54950.0 110.643062
54960.0 110.655029
54970.0 110.666332
54980.0 110.677073
54990.0 110.687136
55000.0 110.697482
55010.0 110.707868
55020.0 110.717285
55030.0 110.726327
55040.0 110.735742
55050.0 110.744155
55060.0 110.751859
55070.0 110.759953
55080.0 110.767867
55090.0 110.775791
55100.0 110.782862
55110.0 110.790499
55120.0 110.799071
55130.0 110.808786
55140.0 110.819184
55150.0 110.829505
55160.0 110.840900
55170.0 110.852637
55180.0 110.865434
55190.0 110.879161
55200.0 110.892274
55210.0 110.903692
55220.0 110.914629
55230.0 110.924932
55240.0 110.934416
55250.0 110.942884
55260.0 110.951774
55270.0 110.960598
55280.0 110.968876
55290.0 110.975521
55300.0 110.981391
55310.0 110.987105
55320.0 110.993109
55330.0 110.999662
55340.0 111.007732
55350.0 111.016301
55360.0 111.026376
55370.0 111.037343
55380.0 111.049379
55390.0 111.062003
55400.0 111.075646
55410.0 111.089875
55420.0 111.104221
55430.0 111.118861
55440.0 111.132637
55450.0 111.145144
55460.0 111.156231
55470.0 111.167819
55480.0 111.180750
55490.0 111.193026
55500.0 111.204061
55510.0 111.215234
55520.0 111.226512
55530.0 111.238191
55540.0 111.249339
55550.0 111.260975
55560.0 111.272723
55570.0 111.285543
55580.0 111.298277
55590.0 111.310264
55600.0 111.322261
55610.0 111.334196
55620.0 111.346007
55630.0 111.358426
55640.0 111.370039
55650.0 111.380946
55660.0 111.390070
55670.0 111.398967
55680.0 111.408539
55690.0 111.418620
55700.0 111.428275
55710.0 111.437939
55720.0 111.447843
55730.0 111.457998
55740.0 111.468278
55750.0 111.478533
55760.0 111.489778
55770.0 111.501835
55780.0 111.513714
55790.0 111.525722
55800.0 111.535963
55810.0 111.545652
55820.0 111.554908
55830.0 111.564708
55840.0 111.575661
55850.0 111.587109
55860.0 111.598787
55870.0 111.610232
55880.0 111.622375
55890.0 111.634881
55900.0 111.646040
55910.0 111.656822
55920.0 111.668160
55930.0 111.678840
55940.0 111.688401
55950.0 111.698215
55960.0 111.708370
55970.0 111.719940
55980.0 111.731785
55990.0 111.744746
56000.0 111.757870
56010.0 111.771393
56020.0 111.784897
56030.0 111.797957
56040.0 111.811098
56050.0 111.823315
56060.0 111.835721
56070.0 111.847264
56080.0 111.857767
56090.0 111.867963
56100.0 111.878401
56110.0 111.888114
56120.0 111.896675
56130.0 111.906137
56140.0 111.916073
56150.0 111.925652
56160.0 111.934651
56170.0 111.943758
56180.0 111.952583
56190.0 111.961053
56200.0 111.968883
56210.0 111.976835
56220.0 111.983498
56230.0 111.990049
56240.0 111.996762
56250.0 112.003608
56260.0 112.010757
56270.0 112.018847
56280.0 112.026313
56290.0 112.033315
56300.0 112.039823
56310.0 112.046133
56320.0 112.052102
56330.0 112.057697
56340.0 112.063099
56350.0 112.068963
56360.0 112.075079
56370.0 112.081296
56380.0 112.087687
56390.0 112.094592
56400.0 112.101749
56410.0 112.109972
56420.0 112.118506
56430.0 112.127692
56440.0 112.136618
56450.0 112.144357
56460.0 112.151019
56470.0 112.157561
56480.0 112.164120
56490.0 112.170542
56500.0 112.177333
56510.0 112.183687
56520.0 112.190876
56530.0 112.197803
56540.0 112.205001
56550.0 112.212288
56560.0 112.219573
56570.0 112.227720
56580.0 112.236719
56590.0 112.246290
56600.0 112.255113
56610.0 112.263723
56620.0 112.271789
56630.0 112.279670
56640.0 112.287327
56650.0 112.295547
56660.0 112.304633
56670.0 112.314086
56680.0 112.322981
56690.0 112.330921
56700.0 112.338572
56710.0 112.345775
56720.0 112.352073
56730.0 112.357925
56740.0 112.363071
56750.0 112.368652
56760.0 112.373190
56770.0 112.376157
56780.0 112.378895
56790.0 112.381405
56800.0 112.383612
56810.0 112.385724
56820.0 112.388339
56830.0 112.391588
56840.0 112.395522
56850.0 112.399541
56860.0 112.403850
56870.0 112.408178
56880.0 112.412823
56890.0 112.417316
56900.0 112.421021
56910.0 112.425548
56920.0 112.431202
56930.0 112.438133
56940.0 112.444199
56950.0 112.449741
56960.0 112.454901
56970.0 112.460068
56980.0 112.465154
56990.0 112.469833
57000.0 112.474431
57010.0 112.479173
57020.0 112.483932
57030.0 112.488228
57040.0 112.492887
57050.0 112.497126
57060.0 112.500399
57070.0 112.503407
57080.0 112.506507
57090.0 112.509324
57100.0 112.511707
57110.0 112.514622
57120.0 112.516769
57130.0 112.519166
57140.0 112.521815
57150.0 112.524461
57160.0 112.527097
57170.0 112.529646
57180.0 112.532425
57190.0 112.535679
57200.0 112.537898
57210.0 112.539848
57220.0 112.542082
57230.0 112.542381
57240.0 112.542364
57250.0 112.541101
57260.0 112.539703
57270.0 112.537575
57280.0 112.535222
57290.0 112.532602
57300.0 112.529616
57310.0 112.526841
57320.0 112.523323
57330.0 112.518946
57340.0 112.513434
57350.0 112.508367
57360.0 112.503748
57370.0 112.499492
57380.0 112.495457
57390.0 112.492243
57400.0 112.489353
57410.0 112.487013
57420.0 112.484219
57430.0 112.481949
57440.0 112.479244
57450.0 112.476224
57460.0 112.472438
57470.0 112.467231
57480.0 112.461272
57490.0 112.456962
57500.0 112.453580
57510.0 112.450650
57520.0 112.448185
57530.0 112.445110
57540.0 112.442314
57550.0 112.438981
57560.0 112.435668
57570.0 112.432528
57580.0 112.429145
57590.0 112.425835
57600.0 112.423125
57610.0 112.421499
57620.0 112.419604
57630.0 112.416780
57640.0 112.415136
57650.0 112.414093
57660.0 112.412995
57670.0 112.412196
57680.0 112.411748
57690.0 112.411585
57700.0 112.411188
57710.0 112.410445
57720.0 112.408591
57730.0 112.408722
57740.0 112.409928
57750.0 112.411150
57760.0 112.411402
57770.0 112.411073
57780.0 112.410287
57790.0 112.409412
57800.0 112.408841
57810.0 112.407864
57820.0 112.407209
57830.0 112.406128
57840.0 112.406388
57850.0 112.407251
57860.0 112.408168
57870.0 112.409791
57880.0 112.411967
57890.0 112.414217
57900.0 112.416186
57910.0 112.417534
57920.0 112.418881
57930.0 112.419074
57940.0 112.418915
57950.0 112.417909
57960.0 112.417006
57970.0 112.415470
57980.0 112.414190
57990.0 112.413509
58000.0 112.412955
58010.0 112.411954
58020.0 112.410444
58030.0 112.408644
58040.0 112.406659
58050.0 112.405743
58060.0 112.406014
58070.0 112.407040
58080.0 112.407756
58090.0 112.407301
58100.0 112.406268
58110.0 112.405617
58120.0 112.405798
58130.0 112.406524
58140.0 112.408201
58150.0 112.409717
58160.0 112.410412
58170.0 112.410922
58180.0 112.411514
58190.0 112.412224
58200.0 112.414164
58210.0 112.415761
58220.0 112.417848
58230.0 112.419624
58240.0 112.421335
58250.0 112.422387
58260.0 112.422862
58270.0 112.423361
58280.0 112.422796
58290.0 112.420992
58300.0 112.418788
58310.0 112.416917
58320.0 112.414844
58330.0 112.412079
58340.0 112.408870
58350.0 112.404304
58360.0 112.400180
58370.0 112.395055
58380.0 112.388861
58390.0 112.383088
58400.0 112.377532
58410.0 112.372125
58420.0 112.366578
58430.0 112.361065
58440.0 112.356292
58450.0 112.351073
58460.0 112.345833
58470.0 112.340831
58480.0 112.334809
58490.0 112.328159
58500.0 112.321144
58510.0 112.313850
58520.0 112.305927
58530.0 112.297590
58540.0 112.290162
58550.0 112.283235
58560.0 112.276993
58570.0 112.270190
58580.0 112.261829
58590.0 112.252564
58600.0 112.243610
58610.0 112.234635
58620.0 112.225988
58630.0 112.216032
58640.0 112.206230
58650.0 112.196504
58660.0 112.187182
58670.0 112.177305
58680.0 112.167456
58690.0 112.157654
58700.0 112.147884
58710.0 112.136978
58720.0 112.125599
58730.0 112.114726
58740.0 112.103102
58750.0 112.090894
58760.0 112.078569
58770.0 112.065773
58780.0 112.053272
58790.0 112.041388
58800.0 112.028478
58810.0 112.016244
58820.0 112.003898
58830.0 111.991507
58840.0 111.979591
58850.0 111.968277
58860.0 111.956726
58870.0 111.943857
58880.0 111.930587
58890.0 111.916798
58900.0 111.902758
58910.0 111.889532
58920.0 111.875908
58930.0 111.862837
58940.0 111.850920
58950.0 111.838941
58960.0 111.827222
58970.0 111.814853
58980.0 111.802592
58990.0 111.789603
59000.0 111.777233
59010.0 111.766059
59020.0 111.754921
59030.0 111.742707
59040.0 111.730198
59050.0 111.717452
59060.0 111.704463
59070.0 111.692046
59080.0 111.680428
59090.0 111.669168
59100.0 111.658107
59110.0 111.647011
59120.0 111.636414
59130.0 111.625771
59140.0 111.613942
59150.0 111.600447
59160.0 111.587090
59170.0 111.574586
59180.0 111.562320
59190.0 111.549533
59200.0 111.535293
59210.0 111.520638
59220.0 111.505164
59230.0 111.489511
59240.0 111.473799
59250.0 111.457078
59260.0 111.439642
59270.0 111.422998
59280.0 111.405985
59290.0 111.388721
59300.0 111.370940
59310.0 111.352231
59320.0 111.334027
59330.0 111.315967
59340.0 111.298642
59350.0 111.280260
59360.0 111.261645
59370.0 111.242984
59380.0 111.224523
59390.0 111.206143
59400.0 111.187831
59410.0 111.169212
59420.0 111.151142
59430.0 111.134494
59440.0 111.117592
59450.0 111.100587
59460.0 111.084364
59470.0 111.067998
59480.0 111.050534
59490.0 111.032729
59500.0 111.014369
59510.0 110.996327
59520.0 110.979741
59530.0 110.963427
59540.0 110.947399
59550.0 110.933298
59560.0 110.920856
59570.0 110.907509
59580.0 110.893709
59590.0 110.878663
59600.0 110.863449
59610.0 110.847661
59620.0 110.831533
59630.0 110.813933
59640.0 110.796466
59650.0 110.778851
59660.0 110.761374
59670.0 110.744613
59680.0 110.727734
59690.0 110.710593
59700.0 110.693724
59710.0 110.676833
59720.0 110.660190
59730.0 110.643357
59740.0 110.626304
59750.0 110.610056
59760.0 110.594651
59770.0 110.579359
59780.0 110.563271
59790.0 110.547651
59800.0 110.532128
59810.0 110.516126
59820.0 110.498232
59830.0 110.480001
59840.0 110.461744
59850.0 110.444345
59860.0 110.426934
59870.0 110.410878
59880.0 110.395165
59890.0 110.379709
59900.0 110.364086
59910.0 110.348309
59920.0 110.333074
59930.0 110.318068
59940.0 110.303852
59950.0 110.289774
59960.0 110.275606
59970.0 110.262131
59980.0 110.248165
59990.0 110.233901
60000.0 110.219936
60010.0 110.205802
60020.0 110.191101
60030.0 110.176006
60040.0 110.160904
60050.0 110.146788
60060.0 110.132968
60070.0 110.118771
60080.0 110.105098
60090.0 110.092113
60100.0 110.079234
60110.0 110.066792
60120.0 110.054244
60130.0 110.040468
60140.0 110.025525
60150.0 110.010851
60160.0 109.996074
60170.0 109.982237
60180.0 109.967813
60190.0 109.952451
60200.0 109.935724
60210.0 109.918379
60220.0 109.901621
60230.0 109.885995
60240.0 109.870511
60250.0 109.854583
60260.0 109.838859
60270.0 109.823792
60280.0 109.809229
60290.0 109.794335
60300.0 109.779705
60310.0 109.764279
60320.0 109.748415
60330.0 109.732839
60340.0 109.717717
60350.0 109.702951
60360.0 109.687979
60370.0 109.672906
60380.0 109.657891
60390.0 109.643533
60400.0 109.629746
60410.0 109.616629
60420.0 109.603735
60430.0 109.590682
60440.0 109.576904
60450.0 109.563496
60460.0 109.550628
60470.0 109.537495
60480.0 109.524582
60490.0 109.512054
60500.0 109.499180
60510.0 109.485494
60520.0 109.471129
60530.0 109.456058
60540.0 109.441111
60550.0 109.425367
60560.0 109.409198
60570.0 109.393453
60580.0 109.377032
60590.0 109.360982
60600.0 109.344543
60610.0 109.328173
60620.0 109.311506
60630.0 109.294796
60640.0 109.278154
60650.0 109.260578
60660.0 109.243903
60670.0 109.227667
60680.0 109.210526
60690.0 109.192746
60700.0 109.176519
60710.0 109.161320
60720.0 109.145529
60730.0 109.129159
60740.0 109.112631
60750.0 109.095532
60760.0 109.078705
60770.0 109.062355
60780.0 109.046335
60790.0 109.032129
60800.0 109.017225
60810.0 109.001899
60820.0 108.985966
60830.0 108.970352
60840.0 108.954428
60850.0 108.937629
60860.0 108.921208
60870.0 108.904914
60880.0 108.887188
60890.0 108.870047
60900.0 108.852643
60910.0 108.835012
60920.0 108.817352
60930.0 108.799864
60940.0 108.782641
60950.0 108.766639
60960.0 108.750315
60970.0 108.733559
60980.0 108.716278
60990.0 108.698984
61000.0 108.681382
61010.0 108.664073
61020.0 108.646627
61030.0 108.629009
61040.0 108.611411
61050.0 108.593850
61060.0 108.576802
61070.0 108.560843
61080.0 108.544406
61090.0 108.528069
61100.0 108.511580
61110.0 108.495828
61120.0 108.480876
61130.0 108.465927
61140.0 108.451140
61150.0 108.437179
61160.0 108.424043
61170.0 108.411470
61180.0 108.397527
61190.0 108.382784
61200.0 108.367908
61210.0 108.352400
61220.0 108.337198
61230.0 108.321678
61240.0 108.305473
61250.0 108.289483
61260.0 108.272026
61270.0 108.255033
61280.0 108.237926
61290.0 108.221214
61300.0 108.204190
61310.0 108.187232
61320.0 108.170157
61330.0 108.153573
61340.0 108.137603
61350.0 108.122019
61360.0 108.107336
61370.0 108.092913
61380.0 108.079485
61390.0 108.065963
61400.0 108.051193
61410.0 108.035982
61420.0 108.020794
61430.0 108.006274
61440.0 107.992466
61450.0 107.979067
61460.0 107.965462
61470.0 107.951509
61480.0 107.938362
61490.0 107.924685
61500.0 107.911205
61510.0 107.897643
61520.0 107.884529
61530.0 107.871400
61540.0 107.858494
61550.0 107.845182
61560.0 107.831565
61570.0 107.818137
61580.0 107.804948
61590.0 107.792728
61600.0 107.780990
61610.0 107.768451
61620.0 107.755630
61630.0 107.743208
61640.0 107.730944
61650.0 107.719399
61660.0 107.707886
61670.0 107.695456
61680.0 107.682947
61690.0 107.671301
61700.0 107.659683
61710.0 107.647485
61720.0 107.635158
61730.0 107.622952
61740.0 107.609665
61750.0 107.596651
61760.0 107.584137
61770.0 107.570920
61780.0 107.556911
61790.0 107.541754
61800.0 107.526558
61810.0 107.511454
61820.0 107.495829
61830.0 107.479101
61840.0 107.461852
61850.0 107.444801
61860.0 107.427961
61870.0 107.410996
61880.0 107.393766
61890.0 107.376739
61900.0 107.360672
61910.0 107.345453
61920.0 107.331241
61930.0 107.317226
61940.0 107.303385
61950.0 107.288262
61960.0 107.272664
61970.0 107.258182
61980.0 107.244612
61990.0 107.231116
62000.0 107.216599
62010.0 107.201265
62020.0 107.185140
62030.0 107.169149
62040.0 107.153206
62050.0 107.136334
62060.0 107.119695
62070.0 107.103717
62080.0 107.089034
62090.0 107.074410
62100.0 107.059663
62110.0 107.045915
62120.0 107.032817
62130.0 107.019487
62140.0 107.006318
62150.0 106.992124
62160.0 106.977667
62170.0 106.962983
62180.0 106.948547
62190.0 106.933069
62200.0 106.916654
62210.0 106.899676
62220.0 106.883285
62230.0 106.867786
62240.0 106.852386
62250.0 106.836508
62260.0 106.820760
62270.0 106.804905
62280.0 106.789240
62290.0 106.773766
62300.0 106.758670
62310.0 106.743629
62320.0 106.728660
62330.0 106.714014
62340.0 106.698781
62350.0 106.684286
62360.0 106.670086
62370.0 106.655252
62380.0 106.640670
62390.0 106.626224
62400.0 106.611522
62410.0 106.596843
62420.0 106.582638
62430.0 106.568602
62440.0 106.554357
62450.0 106.539959
62460.0 106.525003
62470.0 106.510186
62480.0 106.495270
62490.0 106.480295
62500.0 106.465545
62510.0 106.450973
62520.0 106.435668
62530.0 106.419751
62540.0 106.403118
62550.0 106.386424
62560.0 106.370043
62570.0 106.353270
62580.0 106.336638
62590.0 106.320395
62600.0 106.304307
62610.0 106.289365
62620.0 106.275268
62630.0 106.260961
62640.0 106.247319
62650.0 106.234097
62660.0 106.220661
62670.0 106.206339
62680.0 106.191993
62690.0 106.176794
62700.0 106.161528
62710.0 106.146561
62720.0 106.132287
62730.0 106.118031
62740.0 106.103648
62750.0 106.088335
62760.0 106.072735
62770.0 106.056833
62780.0 106.040692
62790.0 106.024203
62800.0 106.008363
62810.0 105.993526
62820.0 105.977914
62830.0 105.961721
62840.0 105.945463
62850.0 105.929323
62860.0 105.913027
62870.0 105.897269
62880.0 105.881858
62890.0 105.866851
62900.0 105.852257
62910.0 105.837357
62920.0 105.822605
62930.0 105.807434
62940.0 105.792006
62950.0 105.776296
62960.0 105.760469
62970.0 105.744967
62980.0 105.730085
62990.0 105.715009
63000.0 105.699895
63010.0 105.684304
63020.0 105.667969
63030.0 105.651321
63040.0 105.634650
63050.0 105.618651
63060.0 105.603448
63070.0 105.588043
63080.0 105.573126
63090.0 105.557775
63100.0 105.541807
63110.0 105.526057
63120.0 105.510682
63130.0 105.494732
63140.0 105.479162
63150.0 105.463177
63160.0 105.446845
63170.0 105.430257
63180.0 105.413843
63190.0 105.398005
63200.0 105.381808
63210.0 105.365511
63220.0 105.349518
63230.0 105.333386
63240.0 105.316937
63250.0 105.300363
63260.0 105.284226
63270.0 105.267762
63280.0 105.251305
63290.0 105.235426
63300.0 105.219798
63310.0 105.203878
63320.0 105.188515
63330.0 105.173167
63340.0 105.158119
63350.0 105.142376
63360.0 105.126586
63370.0 105.111110
63380.0 105.095147
63390.0 105.078670
63400.0 105.062594
63410.0 105.046449
63420.0 105.030452
63430.0 105.014384
63440.0 104.997892
63450.0 104.981500
63460.0 104.965171
63470.0 104.948982
63480.0 104.932661
63490.0 104.916821
63500.0 104.901283
63510.0 104.886686
63520.0 104.871695
63530.0 104.856056
63540.0 104.839861
63550.0 104.823740
63560.0 104.808048
63570.0 104.792474
63580.0 104.777049
63590.0 104.761923
63600.0 104.747158
63610.0 104.732593
63620.0 104.717141
63630.0 104.701653
63640.0 104.685885
63650.0 104.670935
63660.0 104.656568
63670.0 104.642466
63680.0 104.627977
63690.0 104.612163
63700.0 104.596018
63710.0 104.580458
63720.0 104.565768
63730.0 104.551676
63740.0 104.536898
63750.0 104.521839
63760.0 104.506735
63770.0 104.491645
63780.0 104.477690
63790.0 104.464373
63800.0 104.451140
63810.0 104.437715
63820.0 104.423843
63830.0 104.410047
63840.0 104.396248
63850.0 104.382389
63860.0 104.368412
63870.0 104.353853
63880.0 104.339063
63890.0 104.324907
63900.0 104.311096
63910.0 104.297144
63920.0 104.281804
63930.0 104.266118
63940.0 104.250652
63950.0 104.234785
63960.0 104.219528
63970.0 104.203798
63980.0 104.188210
63990.0 104.173141
64000.0 104.158750
64010.0 104.144368
64020.0 104.129559
64030.0 104.115850
64040.0 104.102153
64050.0 104.088376
64060.0 104.074485
64070.0 104.060637
64080.0 104.046583
64090.0 104.033165
64100.0 104.020230
64110.0 104.007817
64120.0 103.994404
64130.0 103.981460
64140.0 103.968578
64150.0 103.955562
64160.0 103.942268
64170.0 103.929202
64180.0 103.916731
64190.0 103.904594
64200.0 103.892905
64210.0 103.881371
64220.0 103.869425
64230.0 103.857960
64240.0 103.846646
64250.0 103.835975
64260.0 103.824690
64270.0 103.813298
64280.0 103.801915
64290.0 103.791201
64300.0 103.780613
64310.0 103.770075
64320.0 103.760782
64330.0 103.752795
64340.0 103.745321
64350.0 103.737738
64360.0 103.729674
64370.0 103.721322
64380.0 103.711979
64390.0 103.701842
64400.0 103.691183
64410.0 103.680963
64420.0 103.671052
64430.0 103.661058
64440.0 103.650969
64450.0 103.641017
64460.0 103.631791
64470.0 103.623153
64480.0 103.615044
64490.0 103.607546
64500.0 103.600253
64510.0 103.593510
64520.0 103.586346
64530.0 103.578848
64540.0 103.571096
64550.0 103.564087
64560.0 103.557014
64570.0 103.550297
64580.0 103.543187
64590.0 103.535371
64600.0 103.526944
64610.0 103.518938
64620.0 103.510507
64630.0 103.501845
64640.0 103.493310
64650.0 103.484542
64660.0 103.475786
64670.0 103.466458
64680.0 103.457087
64690.0 103.447309
64700.0 103.436875
64710.0 103.426227
64720.0 103.415399
64730.0 103.403724
64740.0 103.391374
64750.0 103.379267
64760.0 103.367585
64770.0 103.356452
64780.0 103.345810
64790.0 103.335144
64800.0 103.324065
64810.0 103.312714
64820.0 103.301225
64830.0 103.290089
64840.0 103.278582
64850.0 103.267085
64860.0 103.255673
64870.0 103.244659
64880.0 103.234706
64890.0 103.225267
64900.0 103.215976
64910.0 103.207041
64920.0 103.198737
64930.0 103.190260
64940.0 103.182336
64950.0 103.175515
64960.0 103.168285
64970.0 103.160053
64980.0 103.151942
64990.0 103.143862
65000.0 103.135379
65010.0 103.126470
65020.0 103.117492
65030.0 103.108988
65040.0 103.100683
65050.0 103.092145
65060.0 103.083096
65070.0 103.074659
65080.0 103.066611
65090.0 103.058772
65100.0 103.051250
65110.0 103.043189
65120.0 103.035343
65130.0 103.026639
65140.0 103.017126
65150.0 103.008546
65160.0 102.998930
65170.0 102.988918
65180.0 102.978018
65190.0 102.966282
65200.0 102.955272
65210.0 102.944793
65220.0 102.933842
65230.0 102.923471
65240.0 102.912964
65250.0 102.901013
65260.0 102.888726
65270.0 102.876546
65280.0 102.863845
65290.0 102.850114
65300.0 102.835747
65310.0 102.820994
65320.0 102.805480
65330.0 102.789798
65340.0 102.774223
65350.0 102.758622
65360.0 102.743727
65370.0 102.729016
65380.0 102.714440
65390.0 102.701170
65400.0 102.687892
65410.0 102.674544
65420.0 102.660713
65430.0 102.645627
65440.0 102.630408
65450.0 102.614984
65460.0 102.599546
65470.0 102.584972
65480.0 102.570471
65490.0 102.555949
65500.0 102.540838
65510.0 102.525903
65520.0 102.510718
65530.0 102.495448
65540.0 102.481210
65550.0 102.468279
65560.0 102.454829
65570.0 102.440859
65580.0 102.426539
65590.0 102.411714
65600.0 102.397089
65610.0 102.382026
65620.0 102.366873
65630.0 102.351669
65640.0 102.336562
65650.0 102.322000
65660.0 102.307895
65670.0 102.293239
65680.0 102.278476
65690.0 102.263686
65700.0 102.248622
65710.0 102.233416
65720.0 102.218107
65730.0 102.202687
65740.0 102.187308
65750.0 102.172118
65760.0 102.156800
65770.0 102.141363
65780.0 102.126021
65790.0 102.110869
65800.0 102.095408
65810.0 102.080149
65820.0 102.064984
65830.0 102.050160
65840.0 102.035824
65850.0 102.021363
65860.0 102.006331
65870.0 101.990966
65880.0 101.975578
65890.0 101.960284
65900.0 101.945420
65910.0 101.930730
65920.0 101.916373
65930.0 101.902780
65940.0 101.890582
65950.0 101.879663
65960.0 101.869230
65970.0 101.859912
65980.0 101.851203
65990.0 101.843007
66000.0 101.835590
66010.0 101.827906
66020.0 101.819843
66030.0 101.811934
66040.0 101.804966
66050.0 101.798572
66060.0 101.792945
66070.0 101.787464
66080.0 101.781878
66090.0 101.776845
66100.0 101.772247
66110.0 101.766588
66120.0 101.760274
66130.0 101.752947
66140.0 101.745658
66150.0 101.738381
66160.0 101.731204
66170.0 101.724347
66180.0 101.717720
66190.0 101.709419
66200.0 101.700965
66210.0 101.692851
66220.0 101.685644
66230.0 101.679809
66240.0 101.674325
66250.0 101.668437
66260.0 101.662654
66270.0 101.656647
66280.0 101.650038
66290.0 101.643164
66300.0 101.636748
66310.0 101.630116
66320.0 101.623625
66330.0 101.617485
66340.0 101.611010
66350.0 101.604225
66360.0 101.597766
66370.0 101.592522
66380.0 101.588256
66390.0 101.584296
66400.0 101.580370
66410.0 101.576359
66420.0 101.572467
66430.0 101.568281
66440.0 101.563301
66450.0 101.558125
66460.0 101.552522
66470.0 101.546826
66480.0 101.541305
66490.0 101.535590
66500.0 101.530768
66510.0 101.525503
66520.0 101.520048
66530.0 101.515410
66540.0 101.510078
66550.0 101.503664
66560.0 101.497928
66570.0 101.491972
66580.0 101.486506
66590.0 101.480466
66600.0 101.474517
66610.0 101.468895
66620.0 101.464054
66630.0 101.458391
66640.0 101.452088
66650.0 101.445245
66660.0 101.438455
66670.0 101.431059
66680.0 101.424145
66690.0 101.418434
66700.0 101.412443
66710.0 101.406443
66720.0 101.401258
66730.0 101.396510
66740.0 101.391856
66750.0 101.386532
66760.0 101.380655
66770.0 101.374934
66780.0 101.368935
66790.0 101.362597
66800.0 101.356173
66810.0 101.349372
66820.0 101.342234
66830.0 101.335572
66840.0 101.328372
66850.0 101.320698
66860.0 101.312514
66870.0 101.304326
66880.0 101.295841
66890.0 101.288249
66900.0 101.281030
66910.0 101.273188
66920.0 101.265459
66930.0 101.258530
66940.0 101.251791
66950.0 101.244985
66960.0 101.238367
66970.0 101.231254
66980.0 101.223828
66990.0 101.216242
67000.0 101.209136
67010.0 101.201941
67020.0 101.194495
67030.0 101.186883
67040.0 101.179956
67050.0 101.173475
67060.0 101.167208
67070.0 101.161489
67080.0 101.155614
67090.0 101.148991
67100.0 101.142375
67110.0 101.136334
67120.0 101.130728
67130.0 101.125295
67140.0 101.121130
67150.0 101.117080
67160.0 101.112271
67170.0 101.107361
67180.0 101.101809
67190.0 101.095856
67200.0 101.089887
67210.0 101.085046
67220.0 101.080772
67230.0 101.076719
67240.0 101.072628
67250.0 101.068699
67260.0 101.063342
67270.0 101.058702
67280.0 101.053512
67290.0 101.048389
67300.0 101.044454
67310.0 101.040801
67320.0 101.037559
67330.0 101.033650
67340.0 101.029732
67350.0 101.025578
67360.0 101.021612
67370.0 101.017999
67380.0 101.013802
67390.0 101.009127
67400.0 101.004919
67410.0 101.001508
67420.0 100.998235
67430.0 100.995417
67440.0 100.991936
67450.0 100.988850
67460.0 100.985490
67470.0 100.982140
67480.0 100.978868
67490.0 100.975067
67500.0 100.970794
67510.0 100.966333
67520.0 100.962216
67530.0 100.957845
67540.0 100.953772
67550.0 100.949212
67560.0 100.943836
67570.0 100.938575
67580.0 100.932884
67590.0 100.927790
67600.0 100.922421
67610.0 100.916089
67620.0 100.909306
67630.0 100.902376
67640.0 100.896008
67650.0 100.888506
67660.0 100.880690
67670.0 100.873492
67680.0 100.866605
67690.0 100.860400
67700.0 100.854507
67710.0 100.848293
67720.0 100.841285
67730.0 100.834411
67740.0 100.827396
67750.0 100.820626
67760.0 100.814009
67770.0 100.807184
67780.0 100.799749
67790.0 100.792016
67800.0 100.785023
67810.0 100.778229
67820.0 100.771592
67830.0 100.764664
67840.0 100.757940
67850.0 100.751506
67860.0 100.744676
67870.0 100.737383
67880.0 100.729906
67890.0 100.722437
67900.0 100.715848
67910.0 100.709945
67920.0 100.704320
67930.0 100.698406
67940.0 100.691980
67950.0 100.685341
67960.0 100.678810
67970.0 100.671921
67980.0 100.665262
67990.0 100.659844
68000.0 100.654891
68010.0 100.650253
68020.0 100.646059
68030.0 100.642488
68040.0 100.639200
68050.0 100.636027
68060.0 100.632049
68070.0 100.628039
68080.0 100.623870
68090.0 100.619968
68100.0 100.616240
68110.0 100.612175
68120.0 100.607919
68130.0 100.603151
68140.0 100.598032
68150.0 100.593290
68160.0 100.589168
68170.0 100.585227
68180.0 100.581663
68190.0 100.578220
68200.0 100.575325
68210.0 100.572595
68220.0 100.570037
68230.0 100.568108
68240.0 100.566762
68250.0 100.565427
68260.0 100.563801
68270.0 100.561017
68280.0 100.558488
68290.0 100.556828
68300.0 100.554912
68310.0 100.552729
68320.0 100.550953
68330.0 100.550032
68340.0 100.549490
68350.0 100.549078
68360.0 100.548361
68370.0 100.546932
68380.0 100.544788
68390.0 100.541952
68400.0 100.538865
68410.0 100.536106
68420.0 100.533840
68430.0 100.531903
68440.0 100.530386
68450.0 100.529408
68460.0 100.528276
68470.0 100.527248
68480.0 100.526655
68490.0 100.526464
68500.0 100.526441
68510.0 100.525715
68520.0 100.524960
68530.0 100.523885
68540.0 100.523328
68550.0 100.522896
68560.0 100.522015
68570.0 100.521990
68580.0 100.522677
68590.0 100.523257
68600.0 100.523514
68610.0 100.523767
68620.0 100.523097
68630.0 100.521490
68640.0 100.518706
68650.0 100.515722
68660.0 100.512515
68670.0 100.508779
68680.0 100.504896
68690.0 100.501090
68700.0 100.496538
68710.0 100.492340
68720.0 100.489660
68730.0 100.486970
68740.0 100.483710
68750.0 100.479837
68760.0 100.475732
68770.0 100.471306
68780.0 100.466311
68790.0 100.461022
68800.0 100.456188
68810.0 100.451772
68820.0 100.447566
68830.0 100.442777
68840.0 100.437181
68850.0 100.431258
68860.0 100.425540
68870.0 100.420226
68880.0 100.414706
68890.0 100.409363
68900.0 100.404470
68910.0 100.399459
68920.0 100.393877
68930.0 100.387792
68940.0 100.381880
68950.0 100.375643
68960.0 100.368788
68970.0 100.362153
68980.0 100.356116
68990.0 100.349900
69000.0 100.343746
69010.0 100.337406
69020.0 100.330580
69030.0 100.323389
69040.0 100.316439
69050.0 100.309667
69060.0 100.302774
69070.0 100.295560
69080.0 100.288177
69090.0 100.280656
69100.0 100.273049
69110.0 100.265451
69120.0 100.257424
69130.0 100.249367
69140.0 100.240436
69150.0 100.231748
69160.0 100.222890
69170.0 100.213338
69180.0 100.203534
69190.0 100.193603
69200.0 100.184130
69210.0 100.175134
69220.0 100.166671
69230.0 100.157871
69240.0 100.148581
69250.0 100.139661
69260.0 100.130777
69270.0 100.121329
69280.0 100.111254
69290.0 100.101320
69300.0 100.091488
69310.0 100.081471
69320.0 100.071393
69330.0 100.061133
69340.0 100.051333
69350.0 100.041798
69360.0 100.031393
69370.0 100.019163
69380.0 100.006620
69390.0 99.994113
69400.0 99.983219
69410.0 99.972959
69420.0 99.963247
69430.0 99.952903
69440.0 99.941772
69450.0 99.930157
69460.0 99.918074
69470.0 99.905860
69480.0 99.894397
69490.0 99.883291
69500.0 99.872803
69510.0 99.862843
69520.0 99.852316
69530.0 99.841532
69540.0 99.831095
69550.0 99.820869
69560.0 99.811150
69570.0 99.802239
69580.0 99.793339
69590.0 99.784017
69600.0 99.774934
69610.0 99.765672
69620.0 99.756883
69630.0 99.748685
69640.0 99.740116
69650.0 99.731171
69660.0 99.722876
69670.0 99.715872
69680.0 99.709436
69690.0 99.703694
69700.0 99.698404
69710.0 99.693257
69720.0 99.687479
69730.0 99.682543
69740.0 99.677518
69750.0 99.672976
69760.0 99.668888
69770.0 99.664309
69780.0 99.658749
69790.0 99.653236
69800.0 99.647974
69810.0 99.642193
69820.0 99.637435
69830.0 99.633252
69840.0 99.628640
69850.0 99.624494
69860.0 99.620171
69870.0 99.615499
69880.0 99.610463
69890.0 99.604605
69900.0 99.599053
69910.0 99.593876
69920.0 99.589712
69930.0 99.585065
69940.0 99.579964
69950.0 99.575350
69960.0 99.570978
69970.0 99.566131
69980.0 99.560665
69990.0 99.554663
70000.0 99.550073
70010.0 99.546749
70020.0 99.544043
70030.0 99.541778
70040.0 99.539815
70050.0 99.537133
70060.0 99.534028
70070.0 99.531159
70080.0 99.528639
70090.0 99.525454
70100.0 99.522888
70110.0 99.520170
70120.0 99.517076
70130.0 99.514576
70140.0 99.512095
70150.0 99.509482
70160.0 99.507659
70170.0 99.506066
70180.0 99.504596
70190.0 99.502814
70200.0 99.501368
70210.0 99.499336
70220.0 99.497338
70230.0 99.495158
70240.0 99.492963
70250.0 99.490636
70260.0 99.488478
70270.0 99.486499
70280.0 99.484199
70290.0 99.481882
70300.0 99.479520
70310.0 99.476844
70320.0 99.474531
70330.0 99.471249
70340.0 99.467886
70350.0 99.464691
70360.0 99.461218
70370.0 99.456945
70380.0 99.453085
70390.0 99.449551
70400.0 99.446353
70410.0 99.443429
70420.0 99.439715
70430.0 99.436999
70440.0 99.434284
70450.0 99.431518
70460.0 99.428250
70470.0 99.425137
70480.0 99.422269
70490.0 99.420207
70500.0 99.418767
70510.0 99.416277
70520.0 99.412985
70530.0 99.409605
70540.0 99.405574
70550.0 99.401500
70560.0 99.397828
70570.0 99.394203
70580.0 99.390897
70590.0 99.388661
70600.0 99.387017
70610.0 99.386215
70620.0 99.385807
70630.0 99.386103
70640.0 99.386179
70650.0 99.386715
70660.0 99.387602
70670.0 99.388726
70680.0 99.390226
70690.0 99.391773
70700.0 99.393736
70710.0 99.395550
70720.0 99.398153
70730.0 99.401114
70740.0 99.404283
70750.0 99.407736
70760.0 99.410991
70770.0 99.414008
70780.0 99.417345
70790.0 99.421930
70800.0 99.426376
70810.0 99.430774
70820.0 99.435373
70830.0 99.438238
70840.0 99.440363
70850.0 99.442427
70860.0 99.445187
70870.0 99.447365
70880.0 99.449375
70890.0 99.450988
70900.0 99.452693
70910.0 99.453353
70920.0 99.453214
70930.0 99.452953
70940.0 99.452204
70950.0 99.451200
70960.0 99.450646
70970.0 99.450203
70980.0 99.449900
70990.0 99.449418
71000.0 99.448737
71010.0 99.448500
71020.0 99.449024
71030.0 99.449404
71040.0 99.449496
71050.0 99.450768
71060.0 99.451607
71070.0 99.452397
71080.0 99.454602
71090.0 99.457434
71100.0 99.460350
71110.0 99.463830
71120.0 99.466816
71130.0 99.469868
71140.0 99.473886
71150.0 99.478452
71160.0 99.483799
71170.0 99.489674
71180.0 99.496055
71190.0 99.502209
71200.0 99.508372
71210.0 99.515375
71220.0 99.522516
71230.0 99.528387
71240.0 99.533635
71250.0 99.538510
71260.0 99.542953
71270.0 99.546636
71280.0 99.551093
71290.0 99.556177
71300.0 99.561328
71310.0 99.566687
71320.0 99.571923
71330.0 99.577668
71340.0 99.584059
71350.0 99.589973
71360.0 99.595536
71370.0 99.600464
71380.0 99.604876
71390.0 99.608373
71400.0 99.611454
71410.0 99.614594
71420.0 99.618177
71430.0 99.621651
71440.0 99.625011
71450.0 99.628853
71460.0 99.632372
71470.0 99.635293
71480.0 99.638013
71490.0 99.641045
71500.0 99.644670
71510.0 99.648998
71520.0 99.654140
71530.0 99.658801
71540.0 99.663358
71550.0 99.667700
71560.0 99.671923
71570.0 99.677220
71580.0 99.683019
71590.0 99.688865
71600.0 99.694877
71610.0 99.701042
71620.0 99.707302
71630.0 99.713334
71640.0 99.718983
71650.0 99.724258
71660.0 99.729560
71670.0 99.734380
71680.0 99.738965
71690.0 99.743298
71700.0 99.748346
71710.0 99.753626
71720.0 99.759666
71730.0 99.766176
71740.0 99.772979
71750.0 99.780002
71760.0 99.787459
71770.0 99.795578
71780.0 99.803556
71790.0 99.811235
71800.0 99.819037
71810.0 99.826832
71820.0 99.835453
71830.0 99.845027
71840.0 99.853745
71850.0 99.862557
71860.0 99.870999
71870.0 99.879271
71880.0 99.887057
71890.0 99.895183
71900.0 99.903780
71910.0 99.912316
71920.0 99.921106
71930.0 99.929722
71940.0 99.937853
71950.0 99.945158
71960.0 99.952490
71970.0 99.960166
71980.0 99.968049
71990.0 99.976560
72000.0 99.985485
72010.0 99.994270
72020.0 100.002897
72030.0 100.011403
72040.0 100.020691
72050.0 100.029793
72060.0 100.039643
72070.0 100.050322
72080.0 100.061394
72090.0 100.071792
72100.0 100.082499
72110.0 100.093485
72120.0 100.104217
72130.0 100.114270
72140.0 100.123690
72150.0 100.133003
72160.0 100.142416
72170.0 100.152192
72180.0 100.162466
72190.0 100.173314
72200.0 100.183620
72210.0 100.194407
72220.0 100.205791
72230.0 100.217342
72240.0 100.228544
72250.0 100.240093
72260.0 100.252124
72270.0 100.264421
72280.0 100.277083
72290.0 100.289732
72300.0 100.302198
72310.0 100.314761
72320.0 100.327076
72330.0 100.339644
72340.0 100.353217
72350.0 100.367050
72360.0 100.380679
72370.0 100.393531
72380.0 100.406142
72390.0 100.418778
72400.0 100.431237
72410.0 100.443517
72420.0 100.455528
72430.0 100.467970
72440.0 100.480656
72450.0 100.493075
72460.0 100.506544
72470.0 100.519865
72480.0 100.533786
72490.0 100.547809
72500.0 100.561658
72510.0 100.575363
72520.0 100.588746
72530.0 100.602208
72540.0 100.615974
72550.0 100.629088
72560.0 100.642236
72570.0 100.655404
72580.0 100.668057
72590.0 100.681321
72600.0 100.694731
72610.0 100.707849
72620.0 100.720561
72630.0 100.733651
72640.0 100.746584
72650.0 100.759280
72660.0 100.771640
72670.0 100.784198
72680.0 100.797410
72690.0 100.811023
72700.0 100.823812
72710.0 100.835546
72720.0 100.846789
72730.0 100.858123
72740.0 100.870465
72750.0 100.882776
72760.0 100.894989
72770.0 100.906917
72780.0 100.917815
72790.0 100.928439
72800.0 100.939614
72810.0 100.951048
72820.0 100.962050
72830.0 100.973734
72840.0 100.985791
72850.0 100.998896
72860.0 101.012139
72870.0 101.025230
72880.0 101.038873
72890.0 101.052825
72900.0 101.066246
72910.0 101.079217
72920.0 101.091749
72930.0 101.104377
72940.0 101.117839
72950.0 101.131168
72960.0 101.143855
72970.0 101.156278
72980.0 101.169625
72990.0 101.182830
73000.0 101.195858
73010.0 101.207673
73020.0 101.218560
73030.0 101.228488
73040.0 101.238462
73050.0 101.248448
73060.0 101.258417
73070.0 101.268967
73080.0 101.278939
73090.0 101.289351
73100.0 101.300482
73110.0 101.311337
73120.0 101.321381
73130.0 101.330518
73140.0 101.339554
73150.0 101.348764
73160.0 101.356878
73170.0 101.364271
73180.0 101.371796
73190.0 101.379211
73200.0 101.386998
73210.0 101.394706
73220.0 101.402133
73230.0 101.409432
73240.0 101.416833
73250.0 101.423745
73260.0 101.430745
73270.0 101.438359
73280.0 101.446754
73290.0 101.454544
73300.0 101.462262
73310.0 101.469408
73320.0 101.475551
73330.0 101.481052
73340.0 101.486493
73350.0 101.491365
73360.0 101.495862
73370.0 101.500010
73380.0 101.503964
73390.0 101.507984
73400.0 101.510771
73410.0 101.513276
73420.0 101.516127
73430.0 101.519772
73440.0 101.524194
73450.0 101.528892
73460.0 101.533947
73470.0 101.538983
73480.0 101.543566
73490.0 101.548768
73500.0 101.554295
73510.0 101.559886
73520.0 101.566215
73530.0 101.573164
73540.0 101.579402
73550.0 101.584725
73560.0 101.589726
73570.0 101.594781
73580.0 101.599669
73590.0 101.604740
73600.0 101.610257
73610.0 101.615248
73620.0 101.620020
73630.0 101.624741
73640.0 101.629875
73650.0 101.635128
73660.0 101.640756
73670.0 101.646312
73680.0 101.652267
73690.0 101.658406
73700.0 101.664636
73710.0 101.671679
73720.0 101.678989
73730.0 101.686171
73740.0 101.693186
73750.0 101.699754
73760.0 101.706035
73770.0 101.711234
73780.0 101.716484
73790.0 101.722289
73800.0 101.728271
73810.0 101.734013
73820.0 101.739951
73830.0 101.746476
73840.0 101.753071
73850.0 101.759626
73860.0 101.765828
73870.0 101.772465
73880.0 101.779580
73890.0 101.786705
73900.0 101.794075
73910.0 101.801752
73920.0 101.809698
73930.0 101.817116
73940.0 101.824730
73950.0 101.832320
73960.0 101.840044
73970.0 101.847880
73980.0 101.855741
73990.0 101.863675
74000.0 101.871558
74010.0 101.879575
74020.0 101.888082
74030.0 101.896415
74040.0 101.905658
74050.0 101.914862
74060.0 101.924876
74070.0 101.935321
74080.0 101.946377
74090.0 101.956761
74100.0 101.966118
74110.0 101.975242
74120.0 101.984227
74130.0 101.993549
74140.0 102.004080
74150.0 102.014584
74160.0 102.024669
74170.0 102.034468
74180.0 102.044416
74190.0 102.054390
74200.0 102.064635
74210.0 102.074996
74220.0 102.085829
74230.0 102.096837
74240.0 102.108714
74250.0 102.121113
74260.0 102.133106
74270.0 102.144512
74280.0 102.155565
74290.0 102.166680
74300.0 102.177811
74310.0 102.188584
74320.0 102.199311
74330.0 102.210285
74340.0 102.221526
74350.0 102.232204
74360.0 102.242747
74370.0 102.253401
74380.0 102.264435
74390.0 102.275555
74400.0 102.286726
74410.0 102.297453
74420.0 102.306864
74430.0 102.316359
74440.0 102.325561
74450.0 102.334413
74460.0 102.343057
74470.0 102.351981
74480.0 102.361587
74490.0 102.370708
74500.0 102.379214
74510.0 102.387451
74520.0 102.395792
74530.0 102.403385
74540.0 102.410254
74550.0 102.416470
74560.0 102.421951
74570.0 102.427622
74580.0 102.433245
74590.0 102.438996
74600.0 102.444975
74610.0 102.451489
74620.0 102.458352
74630.0 102.465252
74640.0 102.472816
74650.0 102.480613
74660.0 102.488127
74670.0 102.494926
74680.0 102.502430
74690.0 102.509895
74700.0 102.517614
74710.0 102.525495
74720.0 102.533859
74730.0 102.542323
74740.0 102.550148
74750.0 102.558259
74760.0 102.566278
74770.0 102.574805
74780.0 102.583973
74790.0 102.593495
74800.0 102.602833
74810.0 102.612823
74820.0 102.622801
74830.0 102.632184
74840.0 102.641691
74850.0 102.650471
74860.0 102.658998
74870.0 102.667521
74880.0 102.675505
74890.0 102.683186
74900.0 102.691497
74910.0 102.700161
74920.0 102.709151
74930.0 102.719259
74940.0 102.728749
74950.0 102.738424
74960.0 102.748431
74970.0 102.757841
74980.0 102.766984
74990.0 102.775991
75000.0 102.785564
75010.0 102.795636
75020.0 102.805303
75030.0 102.814819
75040.0 102.824239
75050.0 102.833514
75060.0 102.843003
75070.0 102.853883
75080.0 102.865634
75090.0 102.877735
75100.0 102.889102
75110.0 102.899943
75120.0 102.910090
75130.0 102.920267
75140.0 102.931362
75150.0 102.942363
75160.0 102.953461
75170.0 102.964047
75180.0 102.974479
75190.0 102.984098
75200.0 102.993800
75210.0 103.004128
75220.0 103.014471
75230.0 103.025068
75240.0 103.035802
75250.0 103.046252
75260.0 103.055809
75270.0 103.065592
75280.0 103.075045
75290.0 103.084042
75300.0 103.092424
75310.0 103.100876
75320.0 103.110584
75330.0 103.119611
75340.0 103.128490
75350.0 103.137601
75360.0 103.146370
75370.0 103.155123
75380.0 103.163530
75390.0 103.171527
75400.0 103.179423
75410.0 103.188222
75420.0 103.196892
75430.0 103.204907
75440.0 103.212644
75450.0 103.220015
75460.0 103.226839
75470.0 103.234897
75480.0 103.242876
75490.0 103.250853
75500.0 103.258586
75510.0 103.265000
75520.0 103.271194
75530.0 103.277939
75540.0 103.285192
75550.0 103.291925
75560.0 103.298133
75570.0 103.304487
75580.0 103.310665
75590.0 103.317984
75600.0 103.325585
75610.0 103.333320
75620.0 103.341121
75630.0 103.348563
75640.0 103.355546
75650.0 103.362708
75660.0 103.370384
75670.0 103.378714
75680.0 103.386938
75690.0 103.394833
75700.0 103.402927
75710.0 103.411312
75720.0 103.419960
75730.0 103.428309
75740.0 103.436133
75750.0 103.444270
75760.0 103.453025
75770.0 103.461692
75780.0 103.470805
75790.0 103.479985
75800.0 103.489719
75810.0 103.499644
75820.0 103.509724
75830.0 103.518980
75840.0 103.527546
75850.0 103.536379
75860.0 103.545176
75870.0 103.554040
75880.0 103.562479
75890.0 103.570547
75900.0 103.578271
75910.0 103.585478
75920.0 103.591837
75930.0 103.598438
75940.0 103.604781
75950.0 103.611648
75960.0 103.619687
75970.0 103.628096
75980.0 103.636993
75990.0 103.646563
76000.0 103.656474
76010.0 103.666128
76020.0 103.676422
76030.0 103.687307
76040.0 103.698294
76050.0 103.708246
76060.0 103.718863
76070.0 103.729144
76080.0 103.739098
76090.0 103.749186
76100.0 103.759496
76110.0 103.769504
76120.0 103.779624
76130.0 103.789309
76140.0 103.798346
76150.0 103.807224
76160.0 103.815472
76170.0 103.823033
76180.0 103.830069
76190.0 103.836389
76200.0 103.842426
76210.0 103.847817
76220.0 103.852969
76230.0 103.857041
76240.0 103.860631
76250.0 103.863689
76260.0 103.866965
76270.0 103.869999
76280.0 103.872910
76290.0 103.875292
76300.0 103.877065
76310.0 103.878585
76320.0 103.880979
76330.0 103.883443
76340.0 103.885429
76350.0 103.886754
76360.0 103.887912
76370.0 103.889363
76380.0 103.890499
76390.0 103.891423
76400.0 103.892643
76410.0 103.893398
76420.0 103.893356
76430.0 103.893739
76440.0 103.894432
76450.0 103.894794
76460.0 103.896488
76470.0 103.898589
76480.0 103.900835
76490.0 103.902943
76500.0 103.904848
76510.0 103.906263
76520.0 103.907475
76530.0 103.908179
76540.0 103.908712
76550.0 103.908908
76560.0 103.909092
76570.0 103.910286
76580.0 103.911129
76590.0 103.911551
76600.0 103.911929
76610.0 103.912203
76620.0 103.912510
76630.0 103.912437
76640.0 103.912471
76650.0 103.913024
76660.0 103.914333
76670.0 103.916333
76680.0 103.918310
76690.0 103.920070
76700.0 103.921736
76710.0 103.923280
76720.0 103.925235
76730.0 103.926947
76740.0 103.928420
76750.0 103.929877
76760.0 103.931319
76770.0 103.932412
76780.0 103.934052
76790.0 103.934892
76800.0 103.934902
76810.0 103.934768
76820.0 103.934305
76830.0 103.933808
76840.0 103.933628
76850.0 103.933997
76860.0 103.934702
76870.0 103.934988
76880.0 103.935277
76890.0 103.936061
76900.0 103.936877
76910.0 103.938678
76920.0 103.941247
76930.0 103.943993
76940.0 103.946970
76950.0 103.950889
76960.0 103.955121
76970.0 103.959483
76980.0 103.963755
76990.0 103.967582
77000.0 103.971984
77010.0 103.976623
77020.0 103.980997
77030.0 103.986025
77040.0 103.992083
77050.0 103.998392
77060.0 104.004982
77070.0 104.012104
77080.0 104.018543
77090.0 104.024854
77100.0 104.031214
77110.0 104.038855
77120.0 104.046908
77130.0 104.055696
77140.0 104.064143
77150.0 104.071945
77160.0 104.080419
77170.0 104.089683
77180.0 104.099154
77190.0 104.109036
77200.0 104.118581
77210.0 104.127969
77220.0 104.137573
77230.0 104.147213
77240.0 104.156836
77250.0 104.166536
77260.0 104.175541
77270.0 104.184554
77280.0 104.192989
77290.0 104.201438
77300.0 104.209704
77310.0 104.217493
77320.0 104.225306
77330.0 104.233059
77340.0 104.240174
77350.0 104.246051
77360.0 104.252054
77370.0 104.258793
77380.0 104.265326
77390.0 104.271699
77400.0 104.277267
77410.0 104.281986
77420.0 104.286596
77430.0 104.290855
77440.0 104.295389
77450.0 104.299577
77460.0 104.303774
77470.0 104.308125
77480.0 104.311612
77490.0 104.315335
77500.0 104.319219
77510.0 104.322342
77520.0 104.325666
77530.0 104.329046
77540.0 104.332291
77550.0 104.336019
77560.0 104.340880
77570.0 104.345901
77580.0 104.351011
77590.0 104.356112
77600.0 104.361098
77610.0 104.366286
77620.0 104.371984
77630.0 104.376944
77640.0 104.381054
77650.0 104.385165
77660.0 104.388819
77670.0 104.391429
77680.0 104.393788
77690.0 104.396092
77700.0 104.398209
77710.0 104.399801
77720.0 104.400570
77730.0 104.400930
77740.0 104.401050
77750.0 104.401219
77760.0 104.401748
77770.0 104.402654
77780.0 104.403586
77790.0 104.404712
77800.0 104.406797
77810.0 104.409221
77820.0 104.411607
77830.0 104.413992
77840.0 104.416705
77850.0 104.419481
77860.0 104.422277
77870.0 104.424949
77880.0 104.427422
77890.0 104.430074
77900.0 104.433151
77910.0 104.436244
77920.0 104.439214
77930.0 104.442220
77940.0 104.444738
77950.0 104.446834
77960.0 104.449107
77970.0 104.451521
77980.0 104.453788
77990.0 104.456607
78000.0 104.459229
78010.0 104.462541
78020.0 104.465409
78030.0 104.467656
78040.0 104.469426
78050.0 104.471732
78060.0 104.474667
78070.0 104.477277
78080.0 104.479641
78090.0 104.481739
78100.0 104.483206
78110.0 104.485374
78120.0 104.487510
78130.0 104.490017
78140.0 104.492590
78150.0 104.495724
78160.0 104.499216
78170.0 104.502868
78180.0 104.506247
78190.0 104.509632
78200.0 104.513078
78210.0 104.516206
78220.0 104.519065
78230.0 104.522374
78240.0 104.525346
78250.0 104.528574
78260.0 104.531454
78270.0 104.534483
78280.0 104.537454
78290.0 104.540494
78300.0 104.542713
78310.0 104.544375
78320.0 104.546780
78330.0 104.549628
78340.0 104.552698
78350.0 104.555074
78360.0 104.557637
78370.0 104.561185
78380.0 104.565048
78390.0 104.569028
78400.0 104.573724
78410.0 104.578976
78420.0 104.584836
78430.0 104.590128
78440.0 104.595139
78450.0 104.599391
78460.0 104.604083
78470.0 104.608809
78480.0 104.613823
78490.0 104.618801
78500.0 104.623015
78510.0 104.626884
78520.0 104.631378
78530.0 104.635986
78540.0 104.640438
78550.0 104.644288
78560.0 104.647354
78570.0 104.650241
78580.0 104.652960
78590.0 104.656407
78600.0 104.660533
78610.0 104.664983
78620.0 104.670010
78630.0 104.675098
78640.0 104.679307
78650.0 104.683530
78660.0 104.687165
78670.0 104.690366
78680.0 104.693574
78690.0 104.696326
78700.0 104.698292
78710.0 104.700362
78720.0 104.702140
78730.0 104.704258
78740.0 104.706724
78750.0 104.709120
78760.0 104.711411
78770.0 104.713734
78780.0 104.716715
78790.0 104.719718
78800.0 104.722055
78810.0 104.723875
78820.0 104.725967
78830.0 104.728667
78840.0 104.731229
78850.0 104.733070
78860.0 104.735125
78870.0 104.737447
78880.0 104.739935
78890.0 104.742155
78900.0 104.744914
78910.0 104.748100
78920.0 104.751108
78930.0 104.754081
78940.0 104.757109
78950.0 104.761179
78960.0 104.765794
78970.0 104.770041
78980.0 104.773773
78990.0 104.776581
79000.0 104.779701
79010.0 104.782901
79020.0 104.786123
79030.0 104.789084
79040.0 104.791643
79050.0 104.794076
79060.0 104.796999
79070.0 104.800389
79080.0 104.804415
79090.0 104.808861
79100.0 104.814464
79110.0 104.819839
79120.0 104.825441
79130.0 104.830815
79140.0 104.835814
79150.0 104.840109
79160.0 104.844093
79170.0 104.847680
79180.0 104.850595
79190.0 104.852795
79200.0 104.855242
79210.0 104.858040
79220.0 104.861844
79230.0 104.865948
79240.0 104.870257
79250.0 104.875885
79260.0 104.881950
79270.0 104.888142
79280.0 104.894358
79290.0 104.900689
79300.0 104.908098
79310.0 104.915931
79320.0 104.923692
79330.0 104.930734
79340.0 104.937190
79350.0 104.943182
79360.0 104.949543
79370.0 104.956317
79380.0 104.962884
79390.0 104.968988
79400.0 104.974646
79410.0 104.979650
79420.0 104.984098
79430.0 104.988087
79440.0 104.992246
79450.0 104.996579
79460.0 105.001155
79470.0 105.005609
79480.0 105.009500
79490.0 105.013481
79500.0 105.017350
79510.0 105.021041
79520.0 105.025466
79530.0 105.029789
79540.0 105.034445
79550.0 105.038545
79560.0 105.043142
79570.0 105.047783
79580.0 105.051948
79590.0 105.055686
79600.0 105.058566
79610.0 105.060329
79620.0 105.061946
79630.0 105.062890
79640.0 105.063300
79650.0 105.063107
79660.0 105.063074
79670.0 105.062349
79680.0 105.061825
79690.0 105.061235
79700.0 105.060736
79710.0 105.060310
79720.0 105.060382
79730.0 105.060757
79740.0 105.061191
79750.0 105.061243
79760.0 105.060414
79770.0 105.060261
79780.0 105.060506
79790.0 105.060852
79800.0 105.061387
79810.0 105.061811
79820.0 105.062534
79830.0 105.062917
79840.0 105.063562
79850.0 105.064709
79860.0 105.066143
79870.0 105.066594
79880.0 105.066510
79890.0 105.066545
79900.0 105.066333
79910.0 105.065570
79920.0 105.065054
79930.0 105.065121
79940.0 105.064833
79950.0 105.064779
79960.0 105.064339
79970.0 105.064373
79980.0 105.064489
79990.0 105.064505
80000.0 105.064363
80010.0 105.064791
80020.0 105.065781
80030.0 105.067424
80040.0 105.068737
80050.0 105.069476
80060.0 105.070346
80070.0 105.071296
80080.0 105.072464
80090.0 105.073099
80100.0 105.074069
80110.0 105.076400
80120.0 105.079841
80130.0 105.084155
80140.0 105.088397
80150.0 105.092174
80160.0 105.095600
80170.0 105.098815
80180.0 105.102143
80190.0 105.105947
80200.0 105.109345
80210.0 105.112027
80220.0 105.114617
80230.0 105.118099
80240.0 105.121887
80250.0 105.125520
80260.0 105.129250
80270.0 105.132719
80280.0 105.136753
80290.0 105.140818
80300.0 105.144898
80310.0 105.148868
80320.0 105.152687
80330.0 105.156094
80340.0 105.159579
80350.0 105.163008
80360.0 105.166879
80370.0 105.170462
80380.0 105.173280
80390.0 105.176076
80400.0 105.179521
80410.0 105.182997
80420.0 105.186817
80430.0 105.191111
80440.0 105.195266
80450.0 105.198986
80460.0 105.203057
80470.0 105.206826
80480.0 105.210986
80490.0 105.215274
80500.0 105.220555
80510.0 105.225906
80520.0 105.231193
80530.0 105.236768
80540.0 105.242384
80550.0 105.248295
80560.0 105.253573
80570.0 105.258626
80580.0 105.263674
80590.0 105.269385
80600.0 105.275467
80610.0 105.280987
80620.0 105.285991
80630.0 105.290832
80640.0 105.295387
80650.0 105.299783
80660.0 105.304131
80670.0 105.307756
80680.0 105.311573
80690.0 105.315175
80700.0 105.318611
80710.0 105.322252
80720.0 105.325927
80730.0 105.329103
80740.0 105.331192
80750.0 105.333043
80760.0 105.334681
80770.0 105.336804
80780.0 105.339012
80790.0 105.340490
80800.0 105.341537
80810.0 105.341900
80820.0 105.341413
80830.0 105.341474
80840.0 105.341974
80850.0 105.341542
80860.0 105.340794
80870.0 105.339714
80880.0 105.338591
80890.0 105.338053
80900.0 105.337485
80910.0 105.337211
80920.0 105.336719
80930.0 105.336638
80940.0 105.336322
80950.0 105.335914
80960.0 105.335446
80970.0 105.335000
80980.0 105.334094
80990.0 105.332076
81000.0 105.329299
81010.0 105.327114
81020.0 105.325530
81030.0 105.323877
81040.0 105.322668
81050.0 105.321477
81060.0 105.319744
81070.0 105.317223
81080.0 105.314400
81090.0 105.311049
81100.0 105.307550
81110.0 105.303314
81120.0 105.298288
81130.0 105.292440
81140.0 105.286405
81150.0 105.280015
81160.0 105.273138
81170.0 105.266179
81180.0 105.258522
81190.0 105.250221
81200.0 105.241883
81210.0 105.234798
81220.0 105.227335
81230.0 105.219171
81240.0 105.210730
81250.0 105.202714
81260.0 105.194453
81270.0 105.186722
81280.0 105.178884
81290.0 105.171402
81300.0 105.164027
81310.0 105.156828
81320.0 105.149313
81330.0 105.141371
81340.0 105.134382
81350.0 105.127575
81360.0 105.121560
81370.0 105.115290
81380.0 105.108621
81390.0 105.102664
81400.0 105.097646
81410.0 105.092624
81420.0 105.087459
81430.0 105.082398
81440.0 105.077865
81450.0 105.073213
81460.0 105.068730
81470.0 105.064189
81480.0 105.060832
81490.0 105.057469
81500.0 105.053095
81510.0 105.048206
81520.0 105.043618
81530.0 105.038727
81540.0 105.033953
81550.0 105.030275
81560.0 105.026956
81570.0 105.023465
81580.0 105.020168
81590.0 105.017056
81600.0 105.013958
81610.0 105.010982
81620.0 105.007192
81630.0 105.004157
81640.0 105.000952
81650.0 104.997831
81660.0 104.994330
81670.0 104.990969
81680.0 104.987244
81690.0 104.982325
81700.0 104.977504
81710.0 104.973294
81720.0 104.969253
81730.0 104.965393
81740.0 104.962392
81750.0 104.960311
81760.0 104.958796
81770.0 104.956790
81780.0 104.955407
81790.0 104.954167
81800.0 104.952429
81810.0 104.950498
81820.0 104.948709
81830.0 104.946874
81840.0 104.945096
81850.0 104.943200
81860.0 104.940958
81870.0 104.938776
81880.0 104.937349
81890.0 104.936036
81900.0 104.935195
81910.0 104.934278
81920.0 104.933066
81930.0 104.932286
81940.0 104.931359
81950.0 104.930477
81960.0 104.929711
81970.0 104.929064
81980.0 104.928880
81990.0 104.928664
82000.0 104.928819
82010.0 104.929045
82020.0 104.929928
82030.0 104.931637
82040.0 104.932596
82050.0 104.933327
82060.0 104.933959
82070.0 104.934801
82080.0 104.935681
82090.0 104.936875
82100.0 104.938405
82110.0 104.940005
82120.0 104.941592
82130.0 104.943304
82140.0 104.945571
82150.0 104.948940
82160.0 104.952979
82170.0 104.956588
82180.0 104.960356
82190.0 104.964470
82200.0 104.969097
82210.0 104.974375
82220.0 104.979587
82230.0 104.985577
82240.0 104.991899
82250.0 104.997992
82260.0 105.003636
82270.0 105.009816
82280.0 105.016383
82290.0 105.022893
82300.0 105.029349
82310.0 105.034930
82320.0 105.039709
82330.0 105.044274
82340.0 105.049153
82350.0 105.054549
82360.0 105.059435
82370.0 105.063051
82380.0 105.067330
82390.0 105.072027
82400.0 105.076891
82410.0 105.081118
82420.0 105.084371
82430.0 105.087153
82440.0 105.089846
82450.0 105.092447
82460.0 105.094700
82470.0 105.096780
82480.0 105.098651
82490.0 105.100318
82500.0 105.101847
82510.0 105.103410
82520.0 105.105332
82530.0 105.107451
82540.0 105.109848
82550.0 105.112013
82560.0 105.114756
82570.0 105.118179
82580.0 105.122322
82590.0 105.126089
82600.0 105.130327
82610.0 105.134784
82620.0 105.139129
82630.0 105.144210
82640.0 105.149334
82650.0 105.154164
82660.0 105.159756
82670.0 105.164982
82680.0 105.170881
82690.0 105.176819
82700.0 105.183569
82710.0 105.190705
82720.0 105.197782
82730.0 105.205460
82740.0 105.212609
82750.0 105.219125
82760.0 105.226045
82770.0 105.233440
82780.0 105.240845
82790.0 105.248654
82800.0 105.257058
82810.0 105.265477
82820.0 105.274015
82830.0 105.282791
82840.0 105.291015
82850.0 105.299035
82860.0 105.306033
82870.0 105.312439
82880.0 105.318789
82890.0 105.325010
82900.0 105.332375
82910.0 105.340762
82920.0 105.349138
82930.0 105.357740
82940.0 105.365782
82950.0 105.373999
82960.0 105.382374
82970.0 105.391998
82980.0 105.401627
82990.0 105.411349
83000.0 105.420313
83010.0 105.429153
83020.0 105.437528
83030.0 105.445842
83040.0 105.453930
83050.0 105.462969
83060.0 105.472350
83070.0 105.481346
83080.0 105.490283
83090.0 105.499845
83100.0 105.509795
83110.0 105.520383
83120.0 105.529847
83130.0 105.539082
83140.0 105.548283
83150.0 105.557445
83160.0 105.566319
83170.0 105.575261
83180.0 105.583504
83190.0 105.590933
83200.0 105.598451
83210.0 105.605660
83220.0 105.612156
83230.0 105.618847
83240.0 105.626337
83250.0 105.633504
83260.0 105.640393
83270.0 105.647244
83280.0 105.653821
83290.0 105.660873
83300.0 105.668819
83310.0 105.677272
83320.0 105.685891
83330.0 105.694533
83340.0 105.704486
83350.0 105.714196
83360.0 105.723549
83370.0 105.732827
83380.0 105.741233
83390.0 105.749489
83400.0 105.758397
83410.0 105.767242
83420.0 105.776829
83430.0 105.786426
83440.0 105.796066
83450.0 105.805731
83460.0 105.815016
83470.0 105.824195
83480.0 105.832623
83490.0 105.840998
83500.0 105.849524
83510.0 105.857968
83520.0 105.865923
83530.0 105.873392
83540.0 105.881111
83550.0 105.888660
83560.0 105.896433
83570.0 105.904833
83580.0 105.913795
83590.0 105.923379
83600.0 105.933082
83610.0 105.942259
83620.0 105.951023
83630.0 105.959671
83640.0 105.968355
83650.0 105.977289
83660.0 105.986691
83670.0 105.996230
83680.0 106.005431
83690.0 106.014667
83700.0 106.024027
83710.0 106.033506
83720.0 106.043644
83730.0 106.054002
83740.0 106.065007
83750.0 106.076406
83760.0 106.088066
83770.0 106.099995
83780.0 106.112072
83790.0 106.124112
83800.0 106.135915
83810.0 106.147392
83820.0 106.158065
83830.0 106.168290
83840.0 106.178574
83850.0 106.189002
83860.0 106.199774
83870.0 106.210980
83880.0 106.222638
83890.0 106.233443
83900.0 106.244291
83910.0 106.255518
83920.0 106.266203
83930.0 106.277054
83940.0 106.288498
83950.0 106.299595
83960.0 106.310072
83970.0 106.320204
83980.0 106.330070
83990.0 106.340197
84000.0 106.350088
84010.0 106.359940
84020.0 106.370345
84030.0 106.381070
84040.0 106.392114
84050.0 106.403357
84060.0 106.414891
84070.0 106.425964
84080.0 106.437084
84090.0 106.448739
84100.0 106.460636
84110.0 106.472730
84120.0 106.484375
84130.0 106.495918
84140.0 106.507517
84150.0 106.518976
84160.0 106.530373
84170.0 106.542108
84180.0 106.553797
84190.0 106.564739
84200.0 106.575576
84210.0 106.586922
84220.0 106.597824
84230.0 106.608184
84240.0 106.618190
84250.0 106.628720
84260.0 106.640362
84270.0 106.651868
84280.0 106.664174
84290.0 106.676578
84300.0 106.688909
84310.0 106.701613
84320.0 106.714859
84330.0 106.728641
84340.0 106.742368
84350.0 106.755928
84360.0 106.768753
84370.0 106.780629
84380.0 106.792204
84390.0 106.804337
84400.0 106.815598
84410.0 106.826394
84420.0 106.837471
84430.0 106.848395
84440.0 106.859623
84450.0 106.870756
84460.0 106.881798
84470.0 106.892835
84480.0 106.903177
84490.0 106.913889
84500.0 106.923735
84510.0 106.932737
84520.0 106.942139
84530.0 106.951392
84540.0 106.960250
84550.0 106.970126
84560.0 106.980978
84570.0 106.991068
84580.0 107.000332
84590.0 107.009241
84600.0 107.018112
84610.0 107.026756
84620.0 107.035212
84630.0 107.043740
84640.0 107.052248
84650.0 107.060722
84660.0 107.068746
84670.0 107.076003
84680.0 107.082895
84690.0 107.089746
84700.0 107.097179
84710.0 107.105025
84720.0 107.113132
84730.0 107.121074
84740.0 107.128968
84750.0 107.137399
84760.0 107.145764
84770.0 107.153250
84780.0 107.160677
84790.0 107.167885
84800.0 107.175367
84810.0 107.182751
84820.0 107.190507
84830.0 107.198236
84840.0 107.205606
84850.0 107.214032
84860.0 107.223008
84870.0 107.231631
84880.0 107.240268
84890.0 107.249007
84900.0 107.257219
84910.0 107.265750
84920.0 107.274081
84930.0 107.282403
84940.0 107.291247
84950.0 107.300173
84960.0 107.309730
84970.0 107.319720
84980.0 107.329584
84990.0 107.340172
85000.0 107.351497
85010.0 107.362977
85020.0 107.374355
85030.0 107.385744
85040.0 107.397094
85050.0 107.408257
85060.0 107.418821
85070.0 107.429386
85080.0 107.439656
85090.0 107.450338
85100.0 107.460983
85110.0 107.470838
85120.0 107.481348
85130.0 107.492403
85140.0 107.502747
85150.0 107.513109
85160.0 107.524467
85170.0 107.535801
85180.0 107.546297
85190.0 107.556430
85200.0 107.566904
85210.0 107.577312
85220.0 107.588358
85230.0 107.599484
85240.0 107.610661
85250.0 107.622075
85260.0 107.633660
85270.0 107.645602
85280.0 107.656685
85290.0 107.667440
85300.0 107.677661
85310.0 107.687845
85320.0 107.698439
85330.0 107.708995
85340.0 107.718689
85350.0 107.728626
85360.0 107.739433
85370.0 107.750525
85380.0 107.761160
85390.0 107.771811
85400.0 107.782055
85410.0 107.792190
85420.0 107.801785
85430.0 107.810740
85440.0 107.819221
85450.0 107.827663
85460.0 107.836702
85470.0 107.845937
85480.0 107.854935
85490.0 107.863438
85500.0 107.871424
85510.0 107.879960
85520.0 107.888685
85530.0 107.896940
85540.0 107.906008
85550.0 107.916028
85560.0 107.926340
85570.0 107.936767
85580.0 107.947700
85590.0 107.959270
85600.0 107.971485
85610.0 107.984267
85620.0 107.996349
85630.0 108.008276
85640.0 108.020154
85650.0 108.032483
85660.0 108.044104
85670.0 108.056080
85680.0 108.067543
85690.0 108.078306
85700.0 108.088902
85710.0 108.099063
85720.0 108.109551
85730.0 108.120218
85740.0 108.130760
85750.0 108.141610
85760.0 108.152804
85770.0 108.164326
85780.0 108.176374
85790.0 108.188751
85800.0 108.200984
85810.0 108.212914
85820.0 108.224689
85830.0 108.236441
85840.0 108.248208
85850.0 108.259519
85860.0 108.271358
85870.0 108.283893
85880.0 108.296261
85890.0 108.308746
85900.0 108.321770
85910.0 108.334684
85920.0 108.348212
85930.0 108.362140
85940.0 108.376728
85950.0 108.392144
85960.0 108.408020
85970.0 108.424129
85980.0 108.440459
85990.0 108.457345
86000.0 108.474573
86010.0 108.491913
86020.0 108.509679
86030.0 108.526980
86040.0 108.544773
86050.0 108.562965
86060.0 108.581396
86070.0 108.600422
86080.0 108.619186
86090.0 108.638020
86100.0 108.657933
86110.0 108.678414
86120.0 108.699709
86130.0 108.721662
86140.0 108.743832
86150.0 108.766097
86160.0 108.789120
86170.0 108.812306
86180.0 108.835165
86190.0 108.857757
86200.0 108.879864
86210.0 108.901130
86220.0 108.922688
86230.0 108.944090
86240.0 108.965468
86250.0 108.986807
86260.0 109.008596
86270.0 109.030952
86280.0 109.053534
86290.0 109.076199
86300.0 109.098901
86310.0 109.121348
86320.0 109.143662
86330.0 109.166128
86340.0 109.188385
86350.0 109.210699
86360.0 109.232825
86370.0 109.255006
86380.0 109.277442
86390.0 109.299858
86400.0 109.322477
86400.0 109.322477
